time,seconds_elapsed,z,y,x
1758447241450846000,0.016845947265625,0.13127519190311432,0.005130579695105553,0.2588483393192291
1758447241460818200,0.026818115234375,0.10804364830255508,-0.03515159711241722,0.36338967084884644
1758447241470790100,0.0367900390625,0.09662534296512604,-0.06942833960056305,0.4556977450847626
1758447241480763000,0.046762939453125,0.1159854605793953,-0.1046086996793747,0.5357257127761841
1758447241490735000,0.056735107421875,0.15139031410217285,-0.11418010294437408,0.6073988676071167
1758447241500707000,0.06670703125,0.17817719280719757,-0.08775381743907928,0.6987426280975342
1758447241510679000,0.076678955078125,0.17654813826084137,-0.056166864931583405,0.799174427986145
1758447241520652000,0.086652099609375,0.13880501687526703,-0.0453706756234169,0.8774724006652832
1758447241530625000,0.096625,0.10203688591718674,-0.10796934366226196,0.9018025398254395
1758447241540597000,0.106596923828125,0.08452420681715012,-0.2073340117931366,0.8574662208557129
1758447241550569000,0.11656884765625,0.08431195467710495,-0.3079759478569031,0.7831512689590454
1758447241560542200,0.126542236328125,0.0705290287733078,-0.3725927472114563,0.7137892246246338
1758447241570514000,0.136513916015625,0.027241474017500877,-0.3944418430328369,0.6456634402275085
1758447241580486100,0.146486083984375,-0.047628507018089294,-0.4094035029411316,0.5681774020195007
1758447241590458000,0.1564580078125,-0.10462600737810135,-0.377066045999527,0.47659823298454285
1758447241600430800,0.166430908203125,-0.11881213635206223,-0.2656114399433136,0.38442090153694153
1758447241610403000,0.176403076171875,-0.07362708449363708,-0.10524360090494156,0.2891521751880646
1758447241620375000,0.186375,0.009936253540217876,0.0821920782327652,0.1938198059797287
1758447241630348300,0.196348388671875,0.06631164252758026,0.24851234257221222,0.10218895226716995
1758447241640320300,0.2063203125,0.07136046886444092,0.37836673855781555,0.006454703398048878
1758447241650292200,0.216292236328125,0.048771534115076065,0.49172845482826233,-0.08452899754047394
1758447241660265200,0.22626513671875,0.02178891934454441,0.6199538111686707,-0.17005935311317444
1758447241670237200,0.2362373046875,-0.007763647008687258,0.7156249284744263,-0.24768570065498352
1758447241680209200,0.246209228515625,-0.019487414509058,0.7534927129745483,-0.30701586604118347
1758447241690181400,0.256181396484375,-0.01810869574546814,0.7306241393089294,-0.32855257391929626
1758447241700154400,0.266154296875,-0.018185928463935852,0.6459031105041504,-0.32656294107437134
1758447241710126000,0.2761259765625,-0.018873022869229317,0.5196490287780762,-0.3007577061653137
1758447241720098300,0.286098388671875,-0.03443387523293495,0.36443760991096497,-0.2555425465106964
1758447241730071300,0.2960712890625,-0.06842219829559326,0.21646705269813538,-0.1812898963689804
1758447241740043300,0.306043212890625,-0.10439857840538025,0.10117162764072418,-0.0877721980214119
1758447241750015200,0.31601513671875,-0.14028920233249664,0.018001636490225792,-0.006521548610180616
1758447241759988200,0.32598828125,-0.1569986641407013,-0.025310682132840157,0.04647136107087135
1758447241769960200,0.335960205078125,-0.15618188679218292,-0.02257348597049713,0.0660671666264534
1758447241779932200,0.34593212890625,-0.1409994661808014,0.0048948898911476135,0.05377960950136185
1758447241789905400,0.355905517578125,-0.10829184949398041,0.06623148173093796,0.021400364115834236
1758447241799877000,0.365877197265625,-0.05757221579551697,0.1529434770345688,-0.02454768680036068
1758447241809849300,0.375849365234375,-0.009816678240895271,0.21097908914089203,-0.07802582532167435
1758447241819821000,0.385821044921875,0.02509762905538082,0.23240847885608673,-0.12289635837078094
1758447241829794000,0.3957939453125,0.04795873537659645,0.22816073894500732,-0.15583699941635132
1758447241839766300,0.405766357421875,0.04857339337468147,0.1956632435321808,-0.1668694168329239
1758447241849738200,0.41573828125,0.02714347094297409,0.15048643946647644,-0.15305612981319427
1758447241859711200,0.425711181640625,-0.001651159836910665,0.1035626083612442,-0.1215653121471405
1758447241869683200,0.43568310546875,-0.030831148847937584,0.049672480672597885,-0.07747774571180344
1758447241879655200,0.4456552734375,-0.04838377609848976,0.004400340840220451,-0.03717959299683571
1758447241889628200,0.455628173828125,-0.06303489208221436,-0.024115456268191338,0.00609277980402112
1758447241899600400,0.465600341796875,-0.07288991659879684,-0.033976875245571136,0.05531651899218559
1758447241909572000,0.475572021484375,-0.07281641662120819,-0.0408177375793457,0.10226192325353622
1758447241919544300,0.48554443359375,-0.06095762550830841,-0.054665643721818924,0.12778326869010925
1758447241929517300,0.495517333984375,-0.04068031907081604,-0.06475929170846939,0.1343996226787567
1758447241939489000,0.505489013671875,-0.023662451654672623,-0.04851746931672096,0.12298265099525452
1758447241949461200,0.515461181640625,-0.012025769799947739,-0.012528042308986187,0.08595139533281326
1758447241959434200,0.525434326171875,-0.01781148836016655,0.01660267822444439,0.04367956891655922
1758447241969406200,0.53540625,-0.02780313603579998,0.037818484008312225,0.014041516929864883
1758447241979378200,0.545378173828125,-0.03489673137664795,0.060386911034584045,-0.010698450729250908
1758447241989351200,0.55535107421875,-0.046959783881902695,0.07278818637132645,-0.02701430767774582
1758447241999323100,0.5653232421875,-0.05853468179702759,0.08396254479885101,-0.03550339862704277
1758447242009295000,0.575295166015625,-0.07194077223539352,0.09035999327898026,-0.03337766230106354
1758447242019268400,0.585268310546875,-0.08648908883333206,0.08507201820611954,-0.017798438668251038
1758447242029240000,0.595239990234375,-0.1085408553481102,0.07679011672735214,0.004761998075991869
1758447242039212300,0.60521240234375,-0.12474672496318817,0.06873725354671478,0.03683897480368614
1758447242049184300,0.615184326171875,-0.13424569368362427,0.05231007561087608,0.0649036318063736
1758447242059157200,0.6251572265625,-0.13971315324306488,0.022054435685276985,0.08546563237905502
1758447242069129200,0.635129150390625,-0.13191382586956024,-0.0038000645581632853,0.08545444905757904
1758447242079101400,0.645101318359375,-0.11624538153409958,-0.020139623433351517,0.0651683509349823
1758447242089074200,0.65507421875,-0.09743281453847885,-0.008639561012387276,0.02731790766119957
1758447242099046100,0.665046142578125,-0.0852283462882042,0.017475662752985954,-0.0017217335989698768
1758447242109018400,0.675018310546875,-0.08889258652925491,0.03682965412735939,-0.012822321616113186
1758447242118990000,0.684989990234375,-0.09835080802440643,0.044507548213005066,-0.014419153332710266
1758447242128963300,0.69496337890625,-0.10533308237791061,0.04141401872038841,-0.023075224831700325
1758447242138935300,0.704935302734375,-0.10466355830430984,0.05078515037894249,-0.03562430664896965
1758447242148907300,0.7149072265625,-0.09862324595451355,0.0602276548743248,-0.050213102251291275
1758447242158880300,0.72488037109375,-0.09356137365102768,0.05070845037698746,-0.06344981491565704
1758447242168852200,0.734852294921875,-0.08353377878665924,0.02942579984664917,-0.06292543560266495
1758447242178824200,0.74482421875,-0.06952368468046188,0.01098394114524126,-0.053288787603378296
1758447242188797200,0.754797119140625,-0.06075922027230263,0.002103897277265787,-0.027107518166303635
1758447242198769400,0.764769287109375,-0.05503981560468674,-0.00914369709789753,-0.0017060210229828954
1758447242208741000,0.7747412109375,-0.05535593256354332,-0.02527632750570774,0.01985812745988369
1758447242218714000,0.784714111328125,-0.05511491745710373,-0.03368472680449486,0.037706900388002396
1758447242228686300,0.794686279296875,-0.05321395397186279,-0.03345409780740738,0.044793035835027695
1758447242238658300,0.804658203125,-0.04863331466913223,-0.02827398292720318,0.04160230606794357
1758447242248630300,0.81463037109375,-0.042884618043899536,-0.02274206466972828,0.039497606456279755
1758447242258603300,0.824603271484375,-0.04086913540959358,-0.019031481817364693,0.03461337089538574
1758447242268575200,0.8345751953125,-0.047748345881700516,-0.016683904454112053,0.03477102890610695
1758447242278547200,0.844547119140625,-0.053455233573913574,-0.006155896931886673,0.04099750146269798
1758447242288520400,0.8545205078125,-0.05191219970583916,-0.00025992453447543085,0.037025127559900284
1758447242298492200,0.8644921875,-0.04494696855545044,0.00013156015484128147,0.021374797448515892
1758447242308464400,0.87446435546875,-0.03759318217635155,-0.003148389048874378,0.0031875374261289835
1758447242318437000,0.88443701171875,-0.033433858305215836,-0.011694473214447498,-0.016506537795066833
1758447242328409000,0.8944091796875,-0.030338730663061142,-0.003102049930021167,-0.038906119763851166
1758447242338381300,0.90438134765625,-0.03602511063218117,0.013943778350949287,-0.05281048268079758
1758447242348353000,0.91435302734375,-0.04249845817685127,0.038846198469400406,-0.05024772509932518
1758447242358326300,0.924326171875,-0.05200487747788429,0.054560448974370956,-0.03111450932919979
1758447242368298200,0.93429833984375,-0.053466420620679855,0.054004114121198654,-0.0015105449128895998
1758447242378270200,0.944270263671875,-0.04572887346148491,0.039499204605817795,0.018201639875769615
1758447242388243200,0.9542431640625,-0.030039126053452492,0.013105149380862713,0.018257034942507744
1758447242398215200,0.964215087890625,-0.009260609745979309,-0.011719239875674248,0.007881891913712025
1758447242408187100,0.974187255859375,0.0027774106711149216,-0.030315028503537178,-0.014541125856339931
1758447242418160000,0.98416015625,0.006812898442149162,-0.03807947412133217,-0.03460937738418579
1758447242428132400,0.99413232421875,0.007952997460961342,-0.027710989117622375,-0.052988115698099136
1758447242438104000,1.00410400390625,0.004568386357277632,-0.010057694278657436,-0.06558486819267273
1758447242448076300,1.014076171875,0.0024943165481090546,0.004173705819994211,-0.06807705760002136
1758447242458049300,1.02404931640625,0.013198359869420528,0.03538116067647934,-0.06016134098172188
1758447242468021200,1.034021240234375,0.026142122223973274,0.051624845713377,-0.044737908989191055
1758447242477993200,1.0439931640625,0.028262797743082047,0.043232157826423645,-0.017673268914222717
1758447242487966200,1.05396630859375,0.018621355295181274,0.027157850563526154,0.016339026391506195
1758447242497938200,1.063938232421875,0.00472631212323904,0.0010833739070221782,0.04133652150630951
1758447242507910100,1.07391015625,-0.014772554859519005,-0.015122227370738983,0.041664887219667435
1758447242517882000,1.083882080078125,-0.03509487211704254,-0.01931644044816494,0.016942230984568596
1758447242527855000,1.093855224609375,-0.051538556814193726,-0.007990015670657158,-0.019884757697582245
1758447242537827300,1.103827392578125,-0.06585144996643066,0.00824754312634468,-0.060500096529722214
1758447242547799000,1.113799072265625,-0.08066661655902863,0.02954351156949997,-0.0915251225233078
1758447242557772000,1.12377197265625,-0.08940710872411728,0.04965277388691902,-0.1073104739189148
1758447242567744300,1.133744140625,-0.09391371160745621,0.0628356859087944,-0.10842447727918625
1758447242577716200,1.14371630859375,-0.09579816460609436,0.06596836447715759,-0.10847241431474686
1758447242587689200,1.153689208984375,-0.09738514572381973,0.056343965232372284,-0.10653922706842422
1758447242597661200,1.1636611328125,-0.10431575030088425,0.058454789221286774,-0.1072782501578331
1758447242607633200,1.173633056640625,-0.11344773322343826,0.07808947563171387,-0.10802580416202545
1758447242617604900,1.18360498046875,-0.12892548739910126,0.10423558950424194,-0.1096511259675026
1758447242627578000,1.193578125,-0.13291411101818085,0.12353365868330002,-0.11634817719459534
1758447242637549800,1.2035498046875,-0.12017274647951126,0.12076769769191742,-0.12856437265872955
1758447242647522000,1.21352197265625,-0.09072191268205643,0.10745561867952347,-0.1386289894580841
1758447242657495000,1.2234951171875,-0.05338732525706291,0.09311635792255402,-0.13478657603263855
1758447242667466800,1.233466796875,-0.024952488020062447,0.07464094460010529,-0.11252734065055847
1758447242677439000,1.24343896484375,-0.008733037859201431,0.042983151972293854,-0.07804500311613083
1758447242687412000,1.253411865234375,-0.010076602920889854,-0.004003796260803938,-0.04231603071093559
1758447242697384000,1.263384033203125,-0.008391354233026505,-0.028234567493200302,-0.00866139866411686
1758447242707356000,1.27335595703125,0.0004972121678292751,-0.022658707574009895,0.006076268386095762
1758447242717328000,1.283327880859375,0.013615677133202553,-0.00785366166383028,0.004995823837816715
1758447242727300900,1.29330078125,0.029510488733649254,0.011418569833040237,-0.0001917476038215682
1758447242737273000,1.303273193359375,0.03873754292726517,0.02864149771630764,-0.009177785366773605
1758447242747244800,1.313244873046875,0.0397316999733448,0.039679769426584244,-0.010643589310348034
1758447242757217800,1.3232177734375,0.034145984798669815,0.049785930663347244,-0.0038368161767721176
1758447242767190000,1.33318994140625,0.03232118859887123,0.042571961879730225,0.007547398563474417
1758447242777161700,1.34316162109375,0.026317624375224113,0.01392673421651125,0.01878274232149124
1758447242787135000,1.353135009765625,0.025468075647950172,-0.017849037423729897,0.037398505955934525
1758447242797107000,1.36310693359375,0.033120669424533844,-0.03615773841738701,0.0534786693751812
1758447242807079000,1.373078857421875,0.03831782937049866,-0.045405831187963486,0.0607573576271534
1758447242817051000,1.38305078125,0.039253927767276764,-0.04375014454126358,0.06800195574760437
1758447242827024000,1.39302392578125,0.028325913473963737,-0.03201865404844284,0.07517624646425247
1758447242836995800,1.402995849609375,0.0070698936469852924,-0.02034388668835163,0.07804632931947708
1758447242846967800,1.4129677734375,-0.015397598035633564,-0.015662316232919693,0.07474454492330551
1758447242856941000,1.422941162109375,-0.03254968672990799,-0.009272594004869461,0.06113738939166069
1758447242866912800,1.432912841796875,-0.041665688157081604,-0.0073234266601502895,0.04047844931483269
1758447242876885000,1.442885009765625,-0.03921584412455559,-0.006484530866146088,0.017841581255197525
1758447242886858000,1.45285791015625,-0.029921414330601692,-0.006972155533730984,-0.004811799619346857
1758447242896830000,1.462829833984375,-0.022965503856539726,-0.005475192796438932,-0.021216871216893196
1758447242906802000,1.472802001953125,-0.0206296443939209,0.00809174869209528,-0.020833376795053482
1758447242916774100,1.482774169921875,-0.022612901404500008,0.02485688030719757,-0.009147425182163715
1758447242926747000,1.492746826171875,-0.02942393533885479,0.04417864605784416,-0.0015912387752905488
1758447242936718800,1.50271875,-0.028716066852211952,0.06451161205768585,-0.006053631659597158
1758447242946691000,1.512691162109375,-0.035479962825775146,0.06578647345304489,-0.026800455525517464
1758447242956663800,1.522663818359375,-0.04277036711573601,0.05296574532985687,-0.06172621622681618
1758447242966636000,1.532635986328125,-0.05537430942058563,0.05200487747788429,-0.09698859602212906
1758447242976608000,1.54260791015625,-0.06081860885024071,0.04339807480573654,-0.12282125651836395
1758447242986580700,1.552580810546875,-0.05877889320254326,0.035942286252975464,-0.130869060754776
1758447242996553000,1.562552978515625,-0.048526257276535034,0.04318901523947716,-0.11930801719427109
1758447243006525000,1.57252490234375,-0.037997450679540634,0.04631077125668526,-0.09330304712057114
1758447243016497000,1.582496826171875,-0.03130918741226196,0.03922543302178383,-0.057432398200035095
1758447243026470000,1.592469970703125,-0.025466211140155792,0.027663851156830788,-0.022645657882094383
1758447243036442000,1.602442138671875,-0.02287468872964382,-0.0013824469642713666,0.006012618541717529
1758447243046413800,1.612413818359375,-0.03514440357685089,-0.015267902053892612,-0.013085974380373955
1758447243056387000,1.622386962890625,-0.04007205367088318,0.028315527364611626,-0.06277284026145935
1758447243066359000,1.632359130859375,-0.03356727957725525,0.09141859412193298,-0.11621156334877014
1758447243076331000,1.6423310546875,-0.023065371438860893,0.14359578490257263,-0.15474830567836761
1758447243086303000,1.652302978515625,-0.008064850233495235,0.17180797457695007,-0.16146612167358398
1758447243096276000,1.66227587890625,-0.005563876125961542,0.16043494641780853,-0.12955878674983978
1758447243106248000,1.672248046875,-0.009912019595503807,0.12059299647808075,-0.0717514157295227
1758447243116220000,1.682219970703125,-0.01882908120751381,0.05350903049111366,-0.010483266785740852
1758447243126193000,1.69219287109375,-0.029081452637910843,-0.01269901730120182,0.038003042340278625
1758447243136164900,1.702164794921875,-0.03274276480078697,-0.05634583160281181,0.07610808312892914
1758447243146137000,1.71213720703125,-0.03130972012877464,-0.08276891708374023,0.09782962501049042
1758447243156109800,1.72210986328125,-0.02665877528488636,-0.08869631588459015,0.10122621804475784
1758447243166081800,1.732081787109375,-0.02149011194705963,-0.06012379005551338,0.08691173046827316
1758447243176054000,1.742053955078125,-0.016634903848171234,-0.0030455910600721836,0.05596020445227623
1758447243186026000,1.75202587890625,-0.012023107148706913,0.052251752465963364,0.011054514907300472
1758447243195999000,1.7619990234375,0.004622715059667826,0.09037836641073227,-0.020864535123109818
1758447243205971000,1.771970947265625,0.022731943055987358,0.10682791471481323,-0.03531644493341446
1758447243215943000,1.78194287109375,0.03401096537709236,0.09989463537931442,-0.027701402083039284
1758447243225916000,1.791916015625,0.035899944603443146,0.06073205545544624,-0.005224056541919708
1758447243235888000,1.80188818359375,0.03032621368765831,0.0014708638191223145,0.023926638066768646
1758447243245859800,1.81185986328125,0.014156565070152283,-0.06129851192235947,0.05950194224715233
1758447243255832800,1.821832763671875,-0.0038155107758939266,-0.10466782003641129,0.08880523592233658
1758447243265805000,1.83180517578125,-0.01769936829805374,-0.13205817341804504,0.10392320156097412
1758447243275776800,1.84177685546875,-0.01871909201145172,-0.14272013306617737,0.10253676027059555
1758447243285749000,1.8517490234375,-0.013540043495595455,-0.12706713378429413,0.08282937109470367
1758447243295722000,1.861721923828125,-0.0015675366157665849,-0.07857230305671692,0.0544014573097229
1758447243305694000,1.87169384765625,0.005494900047779083,-0.023447802290320396,0.014419686049222946
1758447243315666000,1.881666015625,0.015866847708821297,0.02448989637196064,-0.022722089663147926
1758447243325639000,1.891638916015625,0.020682908594608307,0.059422846883535385,-0.0509561263024807
1758447243335611000,1.90161083984375,0.017300693318247795,0.08278915286064148,-0.06635558605194092
1758447243345582800,1.911582763671875,-0.0016671388875693083,0.09644611179828644,-0.06445435434579849
1758447243355554800,1.921554931640625,-0.02159903571009636,0.08907607942819595,-0.04875076189637184
1758447243365527800,1.93152783203125,-0.04014236107468605,0.055928777903318405,-0.028917402029037476
1758447243375500000,1.9415,-0.04824156314134598,0.013885455206036568,0.0009414274245500565
1758447243385471700,1.9514716796875,-0.05048820748925209,-0.020675716921687126,0.03219255805015564
1758447243395445000,1.961445068359375,-0.04175090789794922,-0.04596429690718651,0.051709532737731934
1758447243405417000,1.9714169921875,-0.032708942890167236,-0.06319095194339752,0.06546049565076828
1758447243415389000,1.981388916015625,-0.03259016573429108,-0.07320443540811539,0.07804393768310547
1758447243425362000,1.99136181640625,-0.04211682826280594,-0.05788620188832283,0.08021441102027893
1758447243435334000,2.001333984375,-0.04843224585056305,-0.03187404200434685,0.06680858880281448
1758447243445305900,2.011305908203125,-0.04237142577767372,-0.01056476030498743,0.04110908508300781
1758447243455277800,2.02127783203125,-0.0276862233877182,0.005675196181982756,0.010931210592389107
1758447243465251000,2.0312509765625,-0.0059958407655358315,0.017137175425887108,-0.011736550368368626
1758447243475222800,2.041222900390625,0.01016608439385891,0.025969814509153366,-0.014581339433789253
1758447243485195000,2.051195068359375,0.016580574214458466,0.01895824447274208,-0.0001728391507640481
1758447243495168000,2.06116796875,0.011889682151377201,0.0024839304387569427,0.021813154220581055
1758447243505139700,2.0711396484375,0.012211658991873264,-0.0193081833422184,0.046652987599372864
1758447243515112000,2.08111181640625,0.026099244132637978,-0.035595543682575226,0.06613321602344513
1758447243525084000,2.091083984375,0.04972334951162338,-0.06494490802288055,0.07915793359279633
1758447243535057000,2.101056884765625,0.06420588493347168,-0.11181521415710449,0.09192939102649689
1758447243545028900,2.11102880859375,0.045632198452949524,-0.1563347429037094,0.10419005155563354
1758447243555001000,2.1210009765625,0.004348675720393658,-0.16501185297966003,0.12455204874277115
1758447243564973800,2.130973876953125,-0.02935735695064068,-0.16032256186008453,0.14963103830814362
1758447243574946000,2.140946044921875,-0.0418209508061409,-0.14615242183208466,0.17175737023353577
1758447243584918000,2.15091796875,-0.023016635328531265,-0.11565949022769928,0.1884026676416397
1758447243594890800,2.160890869140625,0.009134909138083458,-0.06629113852977753,0.1700367033481598
1758447243604863000,2.170863037109375,0.03826269879937172,-0.018067151308059692,0.13458630442619324
1758447243614835000,2.1808349609375,0.04921894520521164,0.0097423754632473,0.10132288932800293
1758447243624807000,2.190806884765625,0.04173892363905907,0.028080370277166367,0.07883515954017639
1758447243634780000,2.20077978515625,0.022161228582262993,0.014050837606191635,0.06767092645168304
1758447243644752100,2.210752197265625,0.004281830508261919,-0.006695985794067383,0.04989512264728546
1758447243654723800,2.220723876953125,-0.010337858460843563,-0.005133509170264006,0.03375157341361046
1758447243664696800,2.23069677734375,-0.013598632998764515,0.0016583503456786275,0.012310994789004326
1758447243674669000,2.2406689453125,-0.009807622991502285,0.00806165486574173,-0.0029462550301104784
1758447243684640800,2.250640869140625,-0.0006623281515203416,0.004093012306839228,-0.014170413836836815
1758447243694613000,2.260613037109375,0.0031497206073254347,-0.014877216890454292,-0.019887421280145645
1758447243704586000,2.2705859375,-0.0031638352666050196,-0.03338964655995369,-0.031035413965582848
1758447243714558000,2.280557861328125,-0.014256699942052364,-0.005408880300819874,-0.06734415143728256
1758447243724530000,2.290530029296875,-0.027752801775932312,0.05997438728809357,-0.10070423781871796
1758447243734503000,2.3005029296875,-0.035358257591724396,0.1179165169596672,-0.1272495687007904
1758447243744475000,2.310474853515625,-0.02912912331521511,0.16329172253608704,-0.1357509046792984
1758447243754447000,2.320447021484375,-0.021344702690839767,0.18499940633773804,-0.13983699679374695
1758447243764420000,2.330420166015625,-0.012860405258834362,0.16948197782039642,-0.13446833193302155
1758447243774391800,2.340391845703125,-0.00980336219072342,0.125189870595932,-0.11271616071462631
1758447243784364000,2.350364013671875,-0.0043774377554655075,0.05585687234997749,-0.07143530249595642
1758447243794335700,2.360335693359375,-0.00044048685231246054,-0.03723205626010895,-0.014319551177322865
1758447243804309000,2.37030908203125,0.0011709919199347496,-0.12470198422670364,0.05068341642618179
1758447243814281000,2.380281005859375,-0.004345746245235205,-0.18787881731987,0.10916457325220108
1758447243824253000,2.3902529296875,-0.006518086884170771,-0.18371683359146118,0.15293149650096893
1758447243834226000,2.400225830078125,0.007137005217373371,-0.1207977905869484,0.13965269923210144
1758447243844198000,2.410197998046875,0.029833529144525528,-0.0376560315489769,0.08262057602405548
1758447243854169900,2.420169921875,0.05052575841546059,0.03225647285580635,-0.002129463478922844
1758447243864141800,2.430141845703125,0.06249719858169556,0.06841208040714264,-0.08819404244422913
1758447243874115000,2.440114990234375,0.059602078050374985,0.07031011581420898,-0.14188389480113983
1758447243884086800,2.450086669921875,0.05938183516263962,0.044376254081726074,-0.1583145409822464
1758447243894059000,2.46005908203125,0.050515905022621155,0.004224838688969612,-0.139589324593544
1758447243904032000,2.470031982421875,0.03169188275933266,-0.03892582654953003,-0.0812104344367981
1758447243914004000,2.48000390625,0.013729660771787167,-0.06748263537883759,-0.010460896417498589
1758447243923976000,2.489975830078125,0.0054605454206466675,-0.0915251225233078,0.04663940891623497
1758447243933949000,2.499948974609375,0.0028639633674174547,-0.10571018606424332,0.07600022852420807
1758447243943921000,2.5099208984375,0.0035057852510362864,-0.09831938147544861,0.09005985409021378
1758447243953892900,2.519892822265625,0.0046365633606910706,-0.08108792454004288,0.0853780135512352
1758447243963865000,2.529864990234375,-0.0020327907986938953,-0.06874923408031464,0.0698818787932396
1758447243973837800,2.539837890625,-0.009160208515822887,-0.04900562763214111,0.05727953463792801
1758447243983810000,2.54981005859375,-0.016271380707621574,-0.021680794656276703,0.04453364387154579
1758447243993782000,2.559781982421875,-0.013234312646090984,0.0031529164407402277,0.03056776337325573
1758447244003754800,2.569754638671875,-0.0032754219137132168,0.030776554718613625,0.0181766077876091
1758447244013727000,2.57972705078125,0.011361577548086643,0.04404335841536522,0.01383805088698864
1758447244023699000,2.589698974609375,0.017943046987056732,0.036141760647296906,0.017707889899611473
1758447244033671000,2.5996708984375,0.016538230702280998,0.017174459993839264,0.03400936722755432
1758447244043644000,2.609643798828125,0.010378871113061905,0.000316916179144755,0.05741668865084648
1758447244053615900,2.619615966796875,-0.0013851100811734796,-0.022771358489990234,0.07386090606451035
1758447244063587800,2.629587890625,-0.00865953415632248,-0.0507073849439621,0.08292657136917114
1758447244073560800,2.639560791015625,-0.008989766240119934,-0.06961715966463089,0.09374886006116867
1758447244083532800,2.64953271484375,-0.0065620290115475655,-0.07854141294956207,0.10148587822914124
1758447244093505000,2.659505126953125,-0.0033095101825892925,-0.07585295289754868,0.10957656055688858
1758447244103478000,2.66947802734375,0.00959989707916975,-0.04806046932935715,0.1064758449792862
1758447244113449700,2.67944970703125,0.025247566401958466,-0.009196161292493343,0.0928492471575737
1758447244123422000,2.689421875,0.03626985847949982,0.022847259417176247,0.06246737390756607
1758447244133394000,2.699393798828125,0.0415266714990139,0.0448891781270504,0.02563558891415596
1758447244143367000,2.709366943359375,0.0432494692504406,0.05626700073480606,-0.008608668111264706
1758447244153339000,2.7193388671875,0.03521950542926788,0.0630282312631607,-0.028485704213380814
1758447244163311000,2.72931103515625,0.0204504132270813,0.04596110060811043,-0.03377580642700195
1758447244173283800,2.739283935546875,0.010223076678812504,0.0018849853659048676,-0.027236415073275566
1758447244183255800,2.749255859375,0.008293882943689823,-0.03362773358821869,-0.010868626646697521
1758447244193228000,2.75922802734375,0.014989336021244526,-0.053050167858600616,0.013494770042598248
1758447244203199700,2.76919970703125,0.021793445572257042,-0.05992991104722023,0.04212082177400589
1758447244213173000,2.779173095703125,0.036072783172130585,-0.06470602750778198,0.07534269243478775
1758447244223145000,2.78914501953125,0.05362620949745178,-0.06667277216911316,0.10203582048416138
1758447244233117000,2.799116943359375,0.06716465950012207,-0.0753014087677002,0.12377414107322693
1758447244243090000,2.80908984375,0.07831717282533646,-0.0950106680393219,0.1372998058795929
1758447244253062000,2.819061767578125,0.08413032442331314,-0.12272778153419495,0.1495002806186676
1758447244263033900,2.829033935546875,0.0883178785443306,-0.14295528829097748,0.16461078822612762
1758447244273006000,2.839006103515625,0.0958855152130127,-0.15890735387802124,0.18740345537662506
1758447244282979000,2.84897900390625,0.1190560832619667,-0.17431454360485077,0.21928814053535461
1758447244292950800,2.85895068359375,0.15952761471271515,-0.1904037594795227,0.2668788433074951
1758447244302923000,2.868923095703125,0.2088717222213745,-0.22534391283988953,0.3292711079120636
1758447244312896000,2.87889599609375,0.26479196548461914,-0.2930912673473358,0.4046665132045746
1758447244322868000,2.888867919921875,0.31195124983787537,-0.3764958679676056,0.49167704582214355
1758447244332840000,2.89883984375,0.34373074769973755,-0.4728381335735321,0.5705265998840332
1758447244342812000,2.90881201171875,0.36286261677742004,-0.5371941924095154,0.6330970525741577
1758447244352785000,2.918784912109375,0.37828099727630615,-0.5785419344902039,0.6747342348098755
1758447244362756900,2.9287568359375,0.3854328989982605,-0.604914665222168,0.7076639533042908
1758447244372728800,2.938728759765625,0.3900449872016907,-0.6368776559829712,0.7281708121299744
1758447244382701800,2.948701904296875,0.39996951818466187,-0.6381865739822388,0.754876971244812
1758447244392674000,2.958674072265625,0.432312548160553,-0.6133297085762024,0.7850258350372314
1758447244402645800,2.968645751953125,0.48178261518478394,-0.5907202959060669,0.8193044662475586
1758447244412618800,2.97861865234375,0.5403561592102051,-0.572490394115448,0.8454812169075012
1758447244422591000,2.988591064453125,0.5942338109016418,-0.5753024220466614,0.870975911617279
1758447244432563000,2.99856298828125,0.6314855813980103,-0.5899665951728821,0.891823410987854
1758447244442535000,3.008534912109375,0.6411818861961365,-0.6097331047058105,0.9024944305419922
1758447244452508000,3.0185078125,0.6232060790061951,-0.6316860914230347,0.9061115384101868
1758447244462480000,3.02847998046875,0.5858400464057922,-0.6324176788330078,0.8997896909713745
1758447244472451800,3.038451904296875,0.5516016483306885,-0.60798180103302,0.8840712308883667
1758447244482425000,3.048425048828125,0.5342447757720947,-0.5524807572364807,0.8536214232444763
1758447244492396800,3.058396728515625,0.5290372371673584,-0.48880189657211304,0.8150452375411987
1758447244502369000,3.068369140625,0.5271921753883362,-0.4383230209350586,0.7659350037574768
1758447244512341000,3.078341064453125,0.5245404839515686,-0.3813457489013672,0.6975337862968445
1758447244522313700,3.088313720703125,0.5100510120391846,-0.3081463873386383,0.6158671975135803
1758447244532286000,3.098285888671875,0.47244343161582947,-0.23615235090255737,0.5376426577568054
1758447244542258000,3.1082578125,0.4259190857410431,-0.16038647294044495,0.47247326374053955
1758447244552231000,3.11823095703125,0.37179458141326904,-0.11418729275465012,0.42398056387901306
1758447244562203000,3.128202880859375,0.317474365234375,-0.11348900943994522,0.3827899992465973
1758447244572175000,3.138175048828125,0.26926475763320923,-0.13847079873085022,0.3528304994106293
1758447244582146800,3.148146728515625,0.23817181587219238,-0.16688379645347595,0.3324059247970581
1758447244592119800,3.158119873046875,0.22009187936782837,-0.190473273396492,0.3154141306877136
1758447244602092000,3.168092041015625,0.2098696082830429,-0.20783229172229767,0.3089652955532074
1758447244612064000,3.17806396484375,0.1989453285932541,-0.23560559749603271,0.3116321861743927
1758447244622036700,3.18803662109375,0.18343719840049744,-0.2745106518268585,0.3174043297767639
1758447244632008700,3.1980087890625,0.17213501036167145,-0.302679181098938,0.3184935450553894
1758447244641981000,3.20798095703125,0.15688228607177734,-0.3143307566642761,0.301451176404953
1758447244651953700,3.21795361328125,0.14502988755702972,-0.3099845051765442,0.26715660095214844
1758447244661926000,3.22792578125,0.12655048072338104,-0.29123955965042114,0.2302904576063156
1758447244671897900,3.23789794921875,0.10157722234725952,-0.26503512263298035,0.19465842843055725
1758447244681869800,3.247869873046875,0.07388940453529358,-0.23751455545425415,0.16422408819198608
1758447244691842800,3.2578427734375,0.048591237515211105,-0.20371398329734802,0.1288226991891861
1758447244701814800,3.267814697265625,0.02647474966943264,-0.1662110835313797,0.09482105076313019
1758447244711786800,3.277786865234375,0.013399961404502392,-0.11869948357343674,0.0780165046453476
1758447244721759700,3.287759765625,0.011484615504741669,-0.08054570853710175,0.08185571432113647
1758447244731732000,3.29773193359375,0.003665574826300144,-0.06890955567359924,0.11391059309244156
1758447244741703700,3.30770361328125,-0.006125004030764103,-0.07309737801551819,0.1527690440416336
1758447244751676000,3.317676025390625,0.048954226076602936,-0.12003292888402939,0.06256138533353806
1758447244761649000,3.32764892578125,0.10742632299661636,0.053345512598752975,-0.11814794689416885
1758447244771620900,3.337620849609375,0.16431091725826263,0.23523062467575073,-0.26614460349082947
1758447244781592800,3.3475927734375,0.2177933156490326,0.342804491519928,-0.3956216275691986
1758447244791565800,3.35756591796875,0.22887925803661346,0.42505568265914917,-0.44768378138542175
1758447244801537800,3.367537841796875,0.17078052461147308,0.4258365333080292,-0.4659053683280945
1758447244811509800,3.377509765625,0.08513380587100983,0.3689362108707428,-0.46107786893844604
1758447244821481700,3.387481689453125,-0.011835088022053242,0.270292192697525,-0.46219852566719055
1758447244831454700,3.397454833984375,-0.09122684597969055,0.17447513341903687,-0.4743340313434601
1758447244841427000,3.407427001953125,-0.1573808342218399,0.12499945610761642,-0.45922085642814636
1758447244851398700,3.417398681640625,-0.16083522140979767,0.06828611344099045,-0.3760460615158081
1758447244861371600,3.42737158203125,-0.11287781596183777,-0.0456622950732708,-0.33148524165153503
1758447244871343900,3.43734375,-0.06615318357944489,-0.1041109561920166,-0.3256441354751587
1758447244881315600,3.447315673828125,-0.024695493280887604,-0.10559966415166855,-0.3511119484901428
1758447244891287800,3.457287841796875,-0.004786232952028513,-0.0970650315284729,-0.40050268173217773
1758447244901260800,3.4672607421875,0.017186177894473076,-0.08019603788852692,-0.45299091935157776
1758447244911232800,3.477232666015625,0.04617521911859512,-0.0657542422413826,-0.4837040901184082
1758447244921204700,3.487204833984375,0.04451553523540497,-0.06701312214136124,-0.49613597989082336
1758447244931177700,3.497177734375,-0.043598610907793045,-0.05379372462630272,-0.4817091226577759
1758447244941149700,3.507149658203125,-0.1482136994600296,-0.02641376480460167,-0.44036832451820374
1758447244951122000,3.517121826171875,-0.2285522222518921,-0.029472671449184418,-0.40608492493629456
1758447244961094000,3.527093994140625,-0.28646719455718994,-0.02588086575269699,-0.4141891896724701
1758447244971066600,3.537066650390625,-0.3289821445941925,0.015184812247753143,-0.4589473307132721
1758447244981038800,3.547038818359375,-0.36929255723953247,0.1012485921382904,-0.4543565809726715
1758447244991010800,3.5570107421875,-0.4077928066253662,0.16941513121128082,-0.37271392345428467
1758447245000983800,3.56698388671875,-0.44523152709007263,0.2656921148300171,-0.2778918147087097
1758447245010955800,3.576955810546875,-0.4393608570098877,0.43584948778152466,-0.22239579260349274
1758447245020928000,3.586927978515625,-0.36992397904396057,0.5631113052368164,-0.22525016963481903
1758447245030900700,3.596900634765625,-0.29519861936569214,0.4469071924686432,-0.19301579892635345
1758447245040872700,3.606872802734375,-0.2459850013256073,0.5082547068595886,-0.14752474427223206
1758447245050845000,3.616844970703125,-0.3045223355293274,0.5052645206451416,-0.2207781821489334
1758447245060816600,3.626816650390625,-0.3572428226470947,0.448712557554245,-0.2743591070175171
1758447245070790000,3.636789794921875,-0.33703580498695374,0.4164432883262634,-0.2877236604690552
1758447245080761900,3.646761962890625,-0.30445924401283264,0.3271573483943939,-0.30225440859794617
1758447245090733800,3.65673388671875,-0.28079864382743835,0.2577098309993744,-0.2913135886192322
1758447245100705800,3.666705810546875,-0.2554517388343811,0.21329070627689362,-0.23108035326004028
1758447245110678800,3.6766787109375,-0.23823387920856476,0.16409413516521454,-0.15501567721366882
1758447245120650800,3.686650634765625,-0.2311011254787445,0.11743368208408356,-0.06687357276678085
1758447245130623000,3.696623046875,-0.22260883450508118,0.07279830425977707,0.014357367530465126
1758447245140596000,3.706595947265625,-0.21208961308002472,0.024285631254315376,0.06785334646701813
1758447245150567700,3.716567626953125,-0.19523100554943085,-0.010896323248744011,0.09062843769788742
1758447245160540000,3.726539794921875,-0.1742282509803772,-0.03334251046180725,0.09930288791656494
1758447245170513000,3.736512939453125,-0.15492033958435059,-0.05639616400003433,0.09812896698713303
1758447245180484900,3.74648486328125,-0.1289939284324646,-0.0791773796081543,0.10059291869401932
1758447245190456800,3.756456787109375,-0.1012432649731636,-0.09394779801368713,0.10342173278331757
1758447245200428800,3.7664287109375,-0.0687875896692276,-0.09071605652570724,0.10129866003990173
1758447245210401800,3.77640185546875,-0.03298830986022949,-0.06087586656212807,0.0873412936925888
1758447245220373800,3.786373779296875,-0.004789695143699646,-0.0141728101298213,0.05952697619795799
1758447245230345700,3.796345703125,0.014377874322235584,0.030819430947303772,0.033432260155677795
1758447245240318700,3.806318603515625,0.017917215824127197,0.04452938586473465,0.01611904799938202
1758447245250291000,3.816291015625,0.0004932174342684448,0.047379765659570694,0.018568623811006546
1758447245260262700,3.8262626953125,-0.021448567509651184,0.04380979761481285,0.035175830125808716
1758447245270235000,3.83623486328125,-0.0377870611846447,0.02847212180495262,0.04934118315577507
1758447245280208000,3.846207763671875,-0.03635614365339279,0.009332781657576561,0.06151049956679344
1758447245290179800,3.856179931640625,-0.025532258674502373,-0.022887738421559334,0.0629320964217186
1758447245300151800,3.86615185546875,-0.012629242613911629,-0.05898049473762512,0.0500626340508461
1758447245310124800,3.876124755859375,0.003142263740301132,-0.0872504860162735,0.025891784578561783
1758447245320096800,3.8860966796875,0.027907265350222588,-0.10902129113674164,0.00256409146822989
1758447245330068700,3.89606884765625,0.05122430622577667,-0.12800909578800201,0.0014016216155141592
1758447245340040700,3.906040771484375,0.057010553777217865,-0.14357927441596985,0.023418772965669632
1758447245350013700,3.916013671875,0.04777151718735695,-0.11235343664884567,0.043829772621393204
1758447245359986000,3.92598583984375,0.037747111171483994,-0.04403563588857651,0.03588263317942619
1758447245369957600,3.93595751953125,0.037163347005844116,0.015082812868058681,-0.015367770567536354
1758447245379930600,3.9459306640625,0.05181393027305603,0.07123130559921265,-0.08059124648571014
1758447245389902800,3.95590283203125,0.05871977284550667,0.10845723748207092,-0.1362220197916031
1758447245399874600,3.96587451171875,0.04572008550167084,0.11947579681873322,-0.1789572387933731
1758447245409846800,3.9758466796875,0.027790352702140808,0.10905911028385162,-0.20075280964374542
1758447245419819800,3.98581982421875,0.01690840907394886,0.07833794504404068,-0.19661825895309448
1758447245429791700,3.995791748046875,0.006885070353746414,0.035535089671611786,-0.17247962951660156
1758447245439763700,4.005763671875,0.0028583707753568888,-0.014072941616177559,-0.12888288497924805
1758447245449737000,4.015737060546875,0.007530088070780039,-0.05433860421180725,-0.07525773346424103
1758447245459708700,4.025708740234375,0.0123658562079072,-0.08238542079925537,-0.024652348831295967
1758447245469681000,4.035680908203125,0.007396397180855274,-0.07694298774003983,-0.00387383415363729
1758447245479652900,4.04565283203125,0.0005078648100607097,-0.01720215566456318,-0.024220917373895645
1758447245489625600,4.05562548828125,-0.00452923821285367,0.05980101600289345,-0.07228804379701614
1758447245499597800,4.065597900390625,-0.012552277185022831,0.12814171612262726,-0.12171098589897156
1758447245509569800,4.07556982421875,-0.023495739325881004,0.1771811693906784,-0.15149392187595367
1758447245519542800,4.085542724609375,-0.02996109426021576,0.18067097663879395,-0.16073934733867645
1758447245529514800,4.0955146484375,-0.026968766003847122,0.14658571779727936,-0.1425563544034958
1758447245539487000,4.105487060546875,-0.018067151308059692,0.09343753755092621,-0.10578209161758423
1758447245549458700,4.115458740234375,-0.012518188916146755,0.026641197502613068,-0.06333263218402863
1758447245559431700,4.125431640625,-0.014967497438192368,-0.02215483784675598,-0.019107913598418236
1758447245569404000,4.13540380859375,-0.020716197788715363,-0.03244449198246002,0.01828925870358944
1758447245579375600,4.145375732421875,-0.023749271407723427,-0.027956267818808556,0.0345342755317688
1758447245589348900,4.155348876953125,-0.01708417758345604,-0.0235894825309515,0.02816585823893547
1758447245599320800,4.16532080078125,-0.003683418035507202,-0.00945262424647808,0.017286311835050583
1758447245609292800,4.175292724609375,0.004604605492204428,0.008919458836317062,0.006373210810124874
1758447245619264800,4.1852646484375,0.010513360612094402,0.019592342898249626,-0.00427357479929924
1758447245629238000,4.195238037109375,0.002645051572471857,0.02895202301442623,-0.024568192660808563
1758447245639209700,4.205209716796875,-0.010131197050213814,0.06299334764480591,-0.04370460286736488
1758447245649182000,4.215181884765625,-0.01974520832300186,0.10698956996202469,-0.06431534141302109
1758447245659155000,4.225155029296875,-0.025012942031025887,0.1399586945772171,-0.07885593175888062
1758447245669126700,4.235126708984375,-0.01323910616338253,0.16111218929290771,-0.080124132335186
1758447245679099000,4.245098876953125,0.005535380449146032,0.1633380651473999,-0.06673216074705124
1758447245689070600,4.255070556640625,0.024143420159816742,0.13735705614089966,-0.032462336122989655
1758447245699043800,4.2650439453125,0.04739361256361008,0.08954905718564987,0.01667911186814308
1758447245709015800,4.275015869140625,0.07227339595556259,0.019522834569215775,0.06774495542049408
1758447245718987800,4.28498779296875,0.09734546393156052,-0.05294230952858925,0.11630290746688843
1758447245728960800,4.294960693359375,0.12685754895210266,-0.09266015887260437,0.1510249376296997
1758447245738932700,4.3049326171875,0.1700979620218277,-0.11037204414606094,0.17809464037418365
1758447245748904700,4.31490478515625,0.26087793707847595,-0.15158073604106903,0.22435641288757324
1758447245758877000,4.324876953125,0.4212779998779297,-0.23488068580627441,0.29444149136543274
1758447245768850000,4.334849853515625,0.5825739502906799,-0.3878249526023865,0.4158723056316376
1758447245778821600,4.344821533203125,0.7028036713600159,-0.6339297890663147,0.5749304294586182
1758447245788793900,4.3547939453125,0.8188315033912659,-0.9292219281196594,0.7421982288360596
1758447245798766800,4.364766845703125,0.9922378659248352,-1.1951398849487305,0.908033013343811
1758447245808738800,4.37473876953125,1.2566606998443604,-1.3935387134552002,1.0519963502883911
1758447245818710800,4.384710693359375,1.5662585496902466,-1.5899138450622559,1.1866483688354492
1758447245828683000,4.39468310546875,1.8278387784957886,-1.9066691398620605,1.3218051195144653
1758447245838655700,4.40465576171875,2.076632022857666,-2.2940540313720703,1.5005950927734375
1758447245848627700,4.414627685546875,2.311662197113037,-2.752891778945923,1.7217600345611572
1758447245858600000,4.424599853515625,2.519975423812866,-3.2392311096191406,1.9705085754394531
1758447245868572700,4.43457275390625,2.709343910217285,-3.673806667327881,2.2179548740386963
1758447245878545000,4.444544921875,2.9115889072418213,-4.026418685913086,2.4403889179229736
1758447245888516900,4.454516845703125,3.0645651817321777,-4.2552971839904785,2.623206615447998
1758447245898488800,4.46448876953125,3.1742358207702637,-4.344893932342529,2.756479263305664
1758447245908461800,4.4744619140625,3.25337553024292,-4.343386650085449,2.8469998836517334
1758447245918433800,4.484433837890625,3.2805025577545166,-4.217091083526611,2.903742551803589
1758447245928405800,4.49440576171875,3.3170320987701416,-4.03010368347168,2.9353623390197754
1758447245938378800,4.504378662109375,3.398405075073242,-3.8659582138061523,3.0085608959198
1758447245948351000,4.51435107421875,3.454404830932617,-3.7166290283203125,3.1013271808624268
1758447245958322700,4.52432275390625,3.49364972114563,-3.6118197441101074,3.2014248371124268
1758447245968295000,4.534294921875,3.470977544784546,-3.552975654602051,3.3021445274353027
1758447245978268000,4.544267822265625,3.3189475536346436,-3.53454852104187,3.3649723529815674
1758447245988240000,4.554239990234375,3.052339792251587,-3.5157883167266846,3.375589609146118
1758447245998211800,4.5642119140625,2.737048387527466,-3.397412061691284,3.362666130065918
1758447246008184800,4.574184814453125,2.481403350830078,-3.127016305923462,3.319323778152466
1758447246018156800,4.58415673828125,2.2957050800323486,-2.838585138320923,3.228567361831665
1758447246028128800,4.594128662109375,2.161125898361206,-2.5556466579437256,3.115389823913574
1758447246038100700,4.604100830078125,1.997208833694458,-2.3173975944519043,3.0167410373687744
1758447246048073700,4.61407373046875,1.8088469505310059,-2.117116689682007,2.9609782695770264
1758447246058046000,4.6240458984375,1.6017649173736572,-2.001227617263794,2.9085519313812256
1758447246068017700,4.634017578125,1.2878117561340332,-1.7606357336044312,2.355593681335449
1758447246077990700,4.64399072265625,0.991043210029602,-0.1993567794561386,0.6574140787124634
1758447246087963000,4.653962890625,1.3205952644348145,-0.28946855664253235,0.30349382758140564
1758447246097934800,4.663934814453125,1.2813770771026611,-1.2235922813415527,0.6615214943885803
1758447246107906800,4.67390673828125,0.7324239015579224,-2.1860196590423584,1.1982741355895996
1758447246117879800,4.6838798828125,0.1659490168094635,-2.7260050773620605,1.5727283954620361
1758447246127851800,4.693851806640625,-0.034762509167194366,-2.943840503692627,1.7260195016860962
1758447246137823700,4.70382373046875,0.07009120285511017,-2.908731698989868,1.5476654767990112
1758447246147797000,4.713796875,0.3234022855758667,-2.6266613006591797,1.2373805046081543
1758447246157768700,4.723768798828125,0.5521619915962219,-2.135674238204956,1.1003541946411133
1758447246167741000,4.733740966796875,0.6529533267021179,-1.7179220914840698,1.1857061386108398
1758447246177713000,4.743712890625,0.6542595624923706,-1.4996579885482788,1.3501297235488892
1758447246187685600,4.753685546875,0.48948606848716736,-1.3474100828170776,1.4649103879928589
1758447246197657900,4.763657958984375,0.2100192755460739,-1.4394021034240723,1.2191663980484009
1758447246207629800,4.7736298828125,0.015502527356147766,-1.5223504304885864,0.7266160845756531
1758447246217602800,4.783602783203125,-0.05287865921854973,-1.419564962387085,0.2991930842399597
1758447246227574800,4.79357470703125,-0.06027425825595856,-1.3473261594772339,-0.03410204499959946
1758447246237547000,4.803547119140625,-0.03397820517420769,-1.2948318719863892,-0.23087503015995026
1758447246247518700,4.813518798828125,0.0211204644292593,-1.2337805032730103,-0.31551721692085266
1758447246257491700,4.82349169921875,0.1470658779144287,-0.9926778674125671,-0.42111608386039734
1758447246267463700,4.833463623046875,0.33492445945739746,-0.4691762626171112,-0.595413863658905
1758447246277436000,4.843435791015625,0.5051899552345276,0.23767779767513275,-0.8286657333374023
1758447246287407900,4.853407958984375,0.6556180715560913,0.8488224148750305,-1.0002481937408447
1758447246297380600,4.863380615234375,0.7461756467819214,1.1871141195297241,-1.0458787679672241
1758447246307352800,4.873352783203125,0.7291548848152161,1.1855701208114624,-0.8987390995025635
1758447246317324800,4.88332470703125,0.6084577441215515,0.8492815494537354,-0.46908441185951233
1758447246327297800,4.8932978515625,0.6097562909126282,0.1240369901061058,0.02779940702021122
1758447246337269800,4.903269775390625,0.6868526935577393,-0.6219943165779114,0.3645334839820862
1758447246347242000,4.913241943359375,0.8541218042373657,-1.1763120889663696,0.5250166654586792
1758447246357213700,4.923213623046875,1.0982739925384521,-1.4050747156143188,0.6344472765922546
1758447246367186700,4.933186767578125,1.1657750606536865,-1.377801537513733,0.6872050166130066
1758447246377159000,4.943158935546875,0.9660060405731201,-1.5834943056106567,0.9099408984184265
1758447246387130600,4.953130615234375,0.5065351128578186,-2.1920077800750732,1.342971920967102
1758447246397103900,4.963103759765625,-0.13561907410621643,-2.9353742599487305,1.6094838380813599
1758447246407075800,4.973075927734375,-0.47185540199279785,-3.526454448699951,1.4482682943344116
1758447246417047800,4.9830478515625,-1.174551248550415,-2.9235024452209473,1.1452349424362183
1758447246427019800,4.993019775390625,-2.4110143184661865,-1.5353972911834717,0.7834271788597107
1758447246436992800,5.00299267578125,-2.9732778072357178,-0.6061850190162659,0.45485034584999084
1758447246446964700,5.01296484375,-3.3248870372772217,0.8629970550537109,0.38527897000312805
1758447246456937000,5.02293701171875,-3.162172317504883,2.0784711837768555,-0.18807163834571838
1758447246466910000,5.032909912109375,-2.2755916118621826,2.5073728561401367,-0.784241795539856
1758447246476881700,5.042881591796875,-0.8411399722099304,1.9931877851486206,-0.6298535466194153
1758447246486854000,5.05285400390625,-0.4051014184951782,0.6383658051490784,-0.06509590893983841
1758447246496825600,5.06282568359375,-0.2504870891571045,-0.043601807206869125,0.43480178713798523
1758447246506798800,5.072798828125,-0.22490555047988892,-0.3440639078617096,0.552831768989563
1758447246516770800,5.082770751953125,-0.3402465283870697,-0.6771566271781921,0.45867621898651123
1758447246526742800,5.09274267578125,-0.4248974919319153,-0.5818828344345093,0.32667744159698486
1758447246536715800,5.1027158203125,-0.052203018218278885,-0.04710919037461281,0.034157704561948776
1758447246546687700,5.112687744140625,0.4956936240196228,0.5138800740242004,-0.566271960735321
1758447246556659700,5.12265966796875,1.1176575422286987,0.9579305052757263,-1.2467495203018188
1758447246566631700,5.132631591796875,1.8107479810714722,1.1058763265609741,-1.6484911441802979
1758447246576605000,5.14260498046875,2.4128873348236084,0.830189049243927,-1.6647424697875977
1758447246586576600,5.15257666015625,2.7149927616119385,-0.003982757218182087,-1.2599351406097412
1758447246596548900,5.162548828125,2.8113343715667725,-1.4243440628051758,-0.624860942363739
1758447246606521900,5.17252197265625,3.393683433532715,-1.952881097793579,-0.7904640436172485
1758447246616493800,5.182493896484375,4.083873748779297,-1.2870445251464844,-1.1445786952972412
1758447246626466000,5.192466064453125,4.910433292388916,-0.5810034871101379,-1.5588141679763794
1758447246636438000,5.20243798828125,5.870673179626465,-0.03202744200825691,-1.8599588871002197
1758447246646411300,5.212411376953125,6.75010871887207,-0.23529081046581268,-2.032672643661499
1758447246656383000,5.222383056640625,7.274818420410156,-0.8328562378883362,-2.171747922897339
1758447246666355200,5.232355224609375,7.495965480804443,-1.4713644981384277,-2.4045169353485107
1758447246676328200,5.242328125,7.701156139373779,-1.3125910758972168,-2.5508062839508057
1758447246686300200,5.252300048828125,7.778327941894531,-0.44212761521339417,-2.6439948081970215
1758447246696272100,5.262272216796875,7.555619239807129,1.456932544708252,-2.5649712085723877
1758447246706244000,5.272244140625,6.729292392730713,3.722353458404541,-2.070058584213257
1758447246716217000,5.282217041015625,5.418372631072998,4.575227737426758,-1.1030997037887573
1758447246726189000,5.29218896484375,4.196462154388428,4.029417514801025,0.11189217865467072
1758447246736161000,5.3021611328125,3.237276792526245,3.023228883743286,0.7023056745529175
1758447246746134000,5.312134033203125,2.5943355560302734,2.334463357925415,1.107304573059082
1758447246756106200,5.322106201171875,2.289822578430176,1.9785257577896118,1.6529383659362793
1758447246766078000,5.332077880859375,2.3769330978393555,1.7892570495605469,2.3183488845825195
1758447246776050200,5.34205029296875,2.6035706996917725,1.4372001886367798,2.7893123626708984
1758447246786023200,5.352023193359375,2.8252298831939697,0.7917130589485168,2.8857948780059814
1758447246795995000,5.361994873046875,3.1009907722473145,0.024231303483247757,2.582921028137207
1758447246805967000,5.371967041015625,3.393141269683838,-0.8935467600822449,2.081066131591797
1758447246815939000,5.38193896484375,3.4822652339935303,-2.000699996948242,1.2103239297866821
1758447246825912000,5.391912109375,3.4953391551971436,-2.289747953414917,0.30674928426742554
1758447246835884000,5.401884033203125,3.6390576362609863,-1.8978612422943115,-0.24872566759586334
1758447246845856300,5.411856201171875,3.909686326980591,-1.153933048248291,-0.41825371980667114
1758447246855829000,5.4218291015625,4.170418739318848,-0.7571691870689392,-0.4477463662624359
1758447246865801200,5.43180126953125,4.78612756729126,-0.9608493447303772,-0.4284549355506897
1758447246875773200,5.441773193359375,5.680348873138428,-1.734025478363037,-0.24008317291736603
1758447246885745200,5.4517451171875,6.784164905548096,-2.726047992706299,-0.05092363432049751
1758447246895718100,5.46171826171875,6.929412841796875,-4.079543113708496,-0.10369443893432617
1758447246905690000,5.471690185546875,5.598734378814697,-4.86431360244751,-0.4424477219581604
1758447246915662000,5.481662109375,2.6472668647766113,-4.921922206878662,-1.0090243816375732
1758447246925635000,5.491635009765625,-0.3281989097595215,-3.3799240589141846,-1.374419093132019
1758447246935607300,5.501607177734375,-0.7770976424217224,-0.8691889047622681,-0.9243224859237671
1758447246945579000,5.5115791015625,-0.3448375463485718,1.0808719396591187,-0.27920979261398315
1758447246955551200,5.52155126953125,-0.03495718538761139,1.9758473634719849,0.03532550111413002
1758447246965524200,5.531524169921875,-0.04845115542411804,2.1141302585601807,0.07610595226287842
1758447246975496000,5.541495849609375,-0.1010134294629097,1.9361388683319092,-0.014376808889210224
1758447246985468200,5.55146826171875,-0.08145944029092789,1.6298338174819946,-0.1244276762008667
1758447246995441200,5.561441162109375,-0.036543894559144974,1.2024643421173096,-0.20910021662712097
1758447247005413000,5.5714130859375,0.048533447086811066,0.696222722530365,-0.27050819993019104
1758447247015385000,5.581385009765625,0.12955400347709656,0.13673308491706848,-0.2946265637874603
1758447247025357000,5.591357177734375,0.15132427215576172,-0.45085373520851135,-0.26024356484413147
1758447247035330000,5.601330078125,0.15382498502731323,-0.9675647616386414,-0.13627980649471283
1758447247045302300,5.61130224609375,0.1329900026321411,-1.2940051555633545,0.04453311488032341
1758447247055274000,5.62127392578125,0.09596940875053406,-1.33937668800354,0.22311431169509888
1758447247065246200,5.63124609375,0.060865215957164764,-1.1203705072402954,0.33767178654670715
1758447247075219200,5.64121923828125,0.03326714411377907,-0.7383853793144226,0.36266180872917175
1758447247085191000,5.65119091796875,0.014132596552371979,-0.3037428557872772,0.31039753556251526
1758447247095163100,5.6611630859375,0.0044227116741240025,0.04820295050740242,0.1984129548072815
1758447247105136000,5.67113623046875,0.01973056234419346,0.21755309402942657,0.0720030888915062
1758447247115108000,5.681108154296875,0.04283428192138672,0.1844494640827179,-0.02088291198015213
1758447247125080000,5.691080078125,0.06558779627084732,0.0346064455807209,-0.0702105164527893
1758447247135052300,5.70105224609375,0.07685136795043945,-0.11828243732452393,-0.0989028811454773
1758447247145025000,5.71102490234375,0.11055127531290054,-0.2022194117307663,-0.12170273065567017
1758447247154997000,5.7209970703125,0.12000230699777603,-0.22960735857486725,-0.1594378650188446
1758447247164969200,5.73096923828125,0.09860780090093613,-0.22415587306022644,-0.2030886709690094
1758447247174942000,5.74094189453125,0.08674900978803635,-0.1940658837556839,-0.23472702503204346
1758447247184914200,5.7509140625,0.09466338902711868,-0.15766818821430206,-0.24390214681625366
1758447247194886100,5.76088623046875,0.08156037330627441,-0.13134577870368958,-0.23005157709121704
1758447247204858000,5.770858154296875,0.050463974475860596,-0.09106413275003433,-0.18909534811973572
1758447247214831000,5.7808310546875,0.028313662856817245,-0.029799174517393112,-0.11453882604837418
1758447247224803300,5.79080322265625,0.019346533343195915,0.018214955925941467,-0.018433069810271263
1758447247234775000,5.800775146484375,0.0167387668043375,0.035418976098299026,0.07844927161931992
1758447247244748000,5.810748046875,0.014170413836836815,0.011431352235376835,0.15516774356365204
1758447247254720300,5.82072021484375,0.01677684858441353,-0.029768016189336777,0.19745981693267822
1758447247264692000,5.83069189453125,0.02105122245848179,-0.06208121404051781,0.20480214059352875
1758447247274664200,5.840664306640625,0.029570940881967545,-0.0643472969532013,0.18748493492603302
1758447247284637000,5.850636962890625,0.040466200560331345,-0.060694772750139236,0.15607695281505585
1758447247294609200,5.860609130859375,0.049671947956085205,-0.06599712371826172,0.11936048418283463
1758447247304581000,5.8705810546875,0.054305315017700195,-0.07501831650733948,0.08796873688697815
1758447247314553000,5.880552978515625,0.04892227053642273,-0.07596613466739655,0.054186273366212845
1758447247324526000,5.890526123046875,0.06006546691060066,-0.08283256739377975,0.017462346702814102
1758447247334498000,5.900498046875,0.05920127034187317,-0.09828848391771317,-0.018145713955163956
1758447247344470000,5.910469970703125,0.053474411368370056,-0.095647431910038,-0.047801077365875244
1758447247354443000,5.920443115234375,0.07835578918457031,-0.08493779599666595,-0.05940473824739456
1758447247364415200,5.930415283203125,0.10633575916290283,-0.08168074488639832,-0.06758250296115875
1758447247374387000,5.940386962890625,0.12666712701320648,-0.08041920512914658,-0.08843851834535599
1758447247384359200,5.950359130859375,0.20390066504478455,-0.07472962886095047,-0.14284104108810425
1758447247394332200,5.960332275390625,0.32660022377967834,-0.09199783205986023,-0.19662117958068848
1758447247404304100,5.97030419921875,0.45995214581489563,-0.11281070113182068,-0.23045025765895844
1758447247414276000,5.980276123046875,0.6052520871162415,-0.1280927211046219,-0.24665212631225586
1758447247424249000,5.9902490234375,0.7410826086997986,-0.15391473472118378,-0.25704431533813477
1758447247434221000,6.000220947265625,0.6961109042167664,-0.13570323586463928,-0.31079062819480896
1758447247444193000,6.010193115234375,0.483645498752594,-0.04800853878259659,-0.3747893273830414
1758447247454165000,6.0201650390625,0.24294473230838776,0.0933307483792305,-0.4224710762500763
1758447247464138000,6.030137939453125,0.10139027237892151,0.20673027634620667,-0.4171583354473114
1758447247474110200,6.040110107421875,0.0765584260225296,0.21451336145401,-0.3357292711734772
1758447247484082000,6.05008203125,0.006471747532486916,0.13537514209747314,-0.24291278421878815
1758447247494055000,6.060054931640625,-0.05831310898065567,0.08039736747741699,-0.15749801695346832
1758447247504027100,6.070027099609375,-0.051166780292987823,0.06312970072031021,-0.044985849410295486
1758447247513999000,6.0799990234375,-0.10086802393198013,-0.005239502992480993,0.07949269562959671
1758447247523971000,6.08997119140625,-0.1755254864692688,-0.05144348368048668,0.19803984463214874
1758447247533944000,6.099944091796875,-0.1746802031993866,-0.07002489268779755,0.29147177934646606
1758447247543916000,6.109916015625,-0.32022035121917725,-0.15574032068252563,0.33026179671287537
1758447247553888000,6.119887939453125,-0.40727004408836365,-0.2678578197956085,0.3673013150691986
1758447247563861200,6.129861328125,-0.26786765456199646,-0.35565078258514404,0.3884521424770355
1758447247573833000,6.1398330078125,-0.19735807180404663,-0.47752130031585693,0.34286627173423767
1758447247583805200,6.14980517578125,-0.14973436295986176,-0.5447701215744019,0.2707827687263489
1758447247593777200,6.159777099609375,-0.06483758240938187,-0.5174695253372192,0.20659151673316956
1758447247603750000,6.16975,-0.045638859272003174,-0.4079619348049164,0.1804312914609909
1758447247613722000,6.17972216796875,-0.04330459609627724,-0.24831819534301758,0.20211981236934662
1758447247623693800,6.18969384765625,-0.07600954920053482,-0.07814593613147736,0.22928431630134583
1758447247633665500,6.19966552734375,-0.1383245885372162,0.07237645983695984,0.23184095323085785
1758447247643638500,6.209638427734375,-0.22987394034862518,0.20418083667755127,0.19334283471107483
1758447247653610800,6.21961083984375,-0.29538798332214355,0.2722400426864624,0.1460389643907547
1758447247663582500,6.22958251953125,-0.27531999349594116,0.3235248029232025,0.11964117735624313
1758447247673555700,6.2395556640625,-0.2513315677642822,0.3309773802757263,0.12768179178237915
1758447247683527700,6.249527587890625,-0.20771804451942444,0.3452540636062622,0.16415724158287048
1758447247693499600,6.259499755859375,-0.122247613966465,0.32896482944488525,0.253065288066864
1758447247703471600,6.2694716796875,-0.08368610590696335,0.2798577547073364,0.33102187514305115
1758447247713444600,6.279444580078125,-0.12292671948671341,0.3057601749897003,0.3194802701473236
1758447247723416600,6.28941650390625,-0.16622012853622437,0.42823949456214905,0.24301370978355408
1758447247733388500,6.299388427734375,-0.21167071163654327,0.5873867869377136,0.10314050316810608
1758447247743361800,6.30936181640625,-0.27519935369491577,0.738206148147583,-0.03945552930235863
1758447247753333500,6.31933349609375,-0.2693004310131073,0.7831222414970398,-0.11058882623910904
1758447247763305700,6.3293056640625,-0.2471035271883011,0.6670123934745789,-0.10932569205760956
1758447247773277700,6.339277587890625,-0.2505722939968109,0.44718894362449646,-0.06456780433654785
1758447247783250700,6.349250732421875,-0.21405130624771118,0.2594614028930664,-0.004530036821961403
1758447247793222700,6.35922265625,-0.19201098382472992,0.0961715430021286,0.04450727999210358
1758447247803195000,6.36919482421875,-0.17151956260204315,-0.00977486651390791,0.07580767571926117
1758447247813166600,6.37916650390625,-0.173102006316185,-0.0363425612449646,0.10393492132425308
1758447247823139600,6.3891396484375,-0.17628687620162964,-0.0010785802733153105,0.15098339319229126
1758447247833111800,6.39911181640625,-0.18300656974315643,0.08554819226264954,0.20220530033111572
1758447247843083500,6.40908349609375,-0.20063962042331696,0.20213845372200012,0.23170647025108337
1758447247853056800,6.419056884765625,-0.20543570816516876,0.31969118118286133,0.22989311814308167
1758447247863028700,6.42902880859375,-0.19871309399604797,0.4059632122516632,0.20566341280937195
1758447247873000700,6.439000732421875,-0.1809420883655548,0.4348422586917877,0.16791097819805145
1758447247882972700,6.44897265625,-0.15242736041545868,0.40821731090545654,0.1192355826497078
1758447247892945700,6.458945556640625,-0.12140046060085297,0.3659995496273041,0.05962178483605385
1758447247902917600,6.468917724609375,-0.08917887508869171,0.32360950112342834,0.0010282464791089296
1758447247912889600,6.4788896484375,-0.04410354420542717,0.2594376802444458,-0.04464177042245865
1758447247922862800,6.48886279296875,-0.00026791400159709156,0.15569132566452026,-0.0741242915391922
1758447247932834600,6.49883447265625,0.0394776351749897,0.040221720933914185,-0.0875205248594284
1758447247942806800,6.508806884765625,0.07720876485109329,-0.05829419940710068,-0.09537339210510254
1758447247952778500,6.518778564453125,0.10010343044996262,-0.13045014441013336,-0.10980532318353653
1758447247962751700,6.528751708984375,0.12014052271842957,-0.1900775283575058,-0.1349351853132248
1758447247972723700,6.5387236328125,0.14281387627124786,-0.2461296170949936,-0.15599465370178223
1758447247982695700,6.54869580078125,0.16105253994464874,-0.30162936449050903,-0.16417056322097778
1758447247992668700,6.558668701171875,0.17031846940517426,-0.35897040367126465,-0.16217319667339325
1758447248002640600,6.568640625,0.17177309095859528,-0.4198595881462097,-0.14071024954319
1758447248012612600,6.578612548828125,0.14708079397678375,-0.47258272767066956,-0.1154395118355751
1758447248022584600,6.58858447265625,0.1137622520327568,-0.5129133462905884,-0.0960112139582634
1758447248032557800,6.598557861328125,0.08043332397937775,-0.5564554929733276,-0.09264977276325226
1758447248042529500,6.608529541015625,0.054307181388139725,-0.5919533371925354,-0.077473483979702
1758447248052501800,6.618501708984375,0.037530865520238876,-0.6109768152236938,-0.03298458084464073
1758447248062473700,6.6284736328125,0.016029300168156624,-0.5925679802894592,0.04523352533578873
1758447248072446500,6.638446533203125,-0.021251492202281952,-0.5202735662460327,0.13398922979831696
1758447248082418700,6.648418701171875,-0.05175720527768135,-0.37881389260292053,0.2231862097978592
1758447248092390700,6.658390625,-0.06939372420310974,-0.2120763063430786,0.2949512004852295
1758447248102363600,6.66836376953125,-0.0747661143541336,-0.06449936330318451,0.3398643732070923
1758447248112335600,6.678335693359375,-0.07364386320114136,0.06102686747908592,0.3592977225780487
1758447248122307800,6.688307861328125,-0.07043182104825974,0.14282771944999695,0.3705431818962097
1758447248132279600,6.698279541015625,-0.053523145616054535,0.1731685847043991,0.38853204250335693
1758447248142252800,6.708252685546875,-0.04410061612725258,0.16411782801151276,0.4251318573951721
1758447248152224800,6.718224853515625,-0.0394589938223362,0.13721005618572235,0.48345082998275757
1758447248162196700,6.72819677734375,-0.03590979799628258,0.10301665961742401,0.5644748210906982
1758447248172169700,6.738169677734375,-0.02063896507024765,0.07922318577766418,0.6557666659355164
1758447248182141700,6.7481416015625,0.0004442152567207813,0.08358331024646759,0.7258812785148621
1758447248192113700,6.75811376953125,0.02412823960185051,0.11605922877788544,0.7356010675430298
1758447248202085600,6.768085693359375,0.056415606290102005,0.16257373988628387,0.6858835220336914
1758447248212059000,6.778058837890625,0.10106376558542252,0.22212547063827515,0.5996445417404175
1758447248222030600,6.788030517578125,0.1541014164686203,0.2952982187271118,0.4980481266975403
1758447248232002800,6.7980029296875,0.20071259140968323,0.35722389817237854,0.39230573177337646
1758447248241974500,6.807974609375,0.22467705607414246,0.3692092001438141,0.31484928727149963
1758447248251947500,6.817947509765625,0.22762437164783478,0.29818668961524963,0.27691414952278137
1758447248261919700,6.827919677734375,0.23180286586284637,0.17535743117332458,0.2735026478767395
1758447248271891700,6.8378916015625,0.2433820217847824,0.07929748296737671,0.2757868468761444
1758447248281864700,6.84786474609375,0.24616743624210358,0.022307967767119408,0.2741282284259796
1758447248291836700,6.857836669921875,0.24655652046203613,0.0032285500783473253,0.27322593331336975
1758447248301808600,6.86780859375,0.24175244569778442,0.01900378428399563,0.2799783945083618
1758447248311780600,6.877780517578125,0.2365824431180954,0.055934637784957886,0.29075807332992554
1758447248321753900,6.88775390625,0.23901498317718506,0.10146243870258331,0.2990708649158478
1758447248331725600,6.8977255859375,0.2536762058734894,0.13529416918754578,0.29235729575157166
1758447248341697800,6.90769775390625,0.27197346091270447,0.15674354135990143,0.2666146457195282
1758447248351670800,6.9176708984375,0.2854085862636566,0.1568777710199356,0.22470341622829437
1758447248361642500,6.927642578125,0.2843981683254242,0.1337793618440628,0.17684347927570343
1758447248371614700,6.93761474609375,0.2683164179325104,0.08792372792959213,0.14319629967212677
1758447248381586700,6.947586669921875,0.25036484003067017,0.056653693318367004,0.14312227070331573
1758447248391559700,6.9575595703125,0.23794731497764587,0.04667828977108002,0.1692848950624466
1758447248401531600,6.96753173828125,0.2320404201745987,0.0511513352394104,0.20565089583396912
1758447248411503900,6.97750390625,0.22080880403518677,0.04300765320658684,0.2219984382390976
1758447248421476600,6.9874765625,0.2076898068189621,-0.0018218684708699584,0.2154257595539093
1758447248431448600,6.997448486328125,0.20775532722473145,-0.10098546743392944,0.1894351691007614
1758447248441420800,7.0074208984375,0.2310023307800293,-0.22490954399108887,0.1644078493118286
1758447248451392800,7.017392822265625,0.27555060386657715,-0.331633597612381,0.15395814180374146
1758447248461365800,7.02736572265625,0.3269459009170532,-0.3962770402431488,0.15487506985664368
1758447248471337700,7.037337646484375,0.3615661859512329,-0.4082639217376709,0.16836903989315033
1758447248481309700,7.047309814453125,0.37627777457237244,-0.36924487352371216,0.1842060536146164
1758447248491281700,7.05728173828125,0.3707730174064636,-0.276827335357666,0.21381455659866333
1758447248501254700,7.067254638671875,0.34848475456237793,-0.14705389738082886,0.24864736199378967
1758447248511226600,7.0772265625,0.30835196375846863,-0.046124882996082306,0.27370718121528625
1758447248521198800,7.08719873046875,0.25556066632270813,-0.032394424080848694,0.2552621364593506
1758447248531171600,7.097171630859375,0.21035456657409668,-0.06477979570627213,0.20107026398181915
1758447248541143600,7.1071435546875,0.17178906500339508,-0.1126096323132515,0.13150502741336823
1758447248551115800,7.11711572265625,0.10382333397865295,-0.18359139561653137,0.040110666304826736
1758447248561087500,7.12708740234375,0.07210748642683029,-0.2531145513057709,-0.10378312319517136
1758447248571060700,7.137060791015625,0.0264262817800045,-0.32283103466033936,-0.28241464495658875
1758447248581032700,7.14703271484375,-0.057689130306243896,-0.330880731344223,-0.48983120918273926
1758447248591004700,7.157004638671875,-0.15040308237075806,-0.24635837972164154,-0.7091484069824219
1758447248600977700,7.166977783203125,-0.22949044406414032,-0.03898867964744568,-0.9246838688850403
1758447248610949600,7.17694970703125,-0.30138808488845825,0.322369247674942,-1.1275546550750732
1758447248620921600,7.186921630859375,-0.3680936098098755,0.8218474984169006,-1.3120795488357544
1758447248630894000,7.19689404296875,-0.4502675533294678,1.4340027570724487,-1.464989423751831
1758447248640867300,7.206867431640625,-0.565904438495636,2.062100887298584,-1.5681962966918945
1758447248650839300,7.21683935546875,-0.69815593957901,2.640990734100342,-1.6183973550796509
1758447248660811300,7.226811279296875,-0.8159177303314209,3.0952367782592773,-1.587361454963684
1758447248670783200,7.236783203125,-0.8869761824607849,3.387315511703491,-1.5040234327316284
1758447248680756200,7.246756103515625,-0.9660190939903259,3.4775893688201904,-1.3898491859436035
1758447248690728200,7.256728271484375,-0.9795918464660645,3.3461010456085205,-1.2428884506225586
1758447248700700200,7.2667001953125,-0.924710214138031,3.052046298980713,-1.0698511600494385
1758447248710673400,7.27667333984375,-0.8448684215545654,2.655510902404785,-0.9427720904350281
1758447248720645000,7.28664501953125,-0.7923700213432312,2.2796003818511963,-0.9669290781021118
1758447248730617300,7.296617431640625,-0.781325101852417,1.8441593647003174,-1.1058357954025269
1758447248740589000,7.306589111328125,-0.8053542971611023,1.3811832666397095,-1.2655775547027588
1758447248750562300,7.316562255859375,-0.8251365423202515,0.9457358717918396,-1.4172589778900146
1758447248760534300,7.3265341796875,-0.8452394008636475,0.5157291293144226,-1.5704882144927979
1758447248770506200,7.33650634765625,-0.8332087993621826,0.260242223739624,-1.7297329902648926
1758447248780479200,7.346479248046875,-0.7533584833145142,0.19532369077205658,-1.8991496562957764
1758447248790451200,7.356451171875,-0.6683298349380493,0.16867130994796753,-1.9808355569839478
1758447248800423200,7.366423095703125,-0.7080016136169434,-0.02269199676811695,-1.9086259603500366
1758447248810395100,7.37639501953125,-0.7740485668182373,-0.21694377064704895,-1.7832499742507935
1758447248820368400,7.386368408203125,-0.8336847424507141,-0.41996878385543823,-1.6416124105453491
1758447248830340000,7.396340087890625,-0.9207383990287781,-0.6488304734230042,-1.452223539352417
1758447248840312300,7.406312255859375,-0.9943721294403076,-0.7350042462348938,-1.2794313430786133
1758447248850284000,7.416283935546875,-1.0206050872802734,-0.5898443460464478,-1.1669524908065796
1758447248860257000,7.426257080078125,-1.0496063232421875,-0.27658843994140625,-1.1099672317504883
1758447248870229200,7.436229248046875,-1.0694857835769653,-0.007509848102927208,-1.0955208539962769
1758447248880201200,7.446201171875,-1.0608752965927124,0.10733098536729813,-1.0271577835083008
1758447248890174200,7.45617431640625,-1.0294833183288574,-0.00663579860702157,-0.9635064005851746
1758447248900146200,7.466146240234375,-0.9833199977874756,-0.2719894349575043,-0.9324765801429749
1758447248910118100,7.4761181640625,-0.9123864769935608,-0.5520607829093933,-0.8819140195846558
1758447248920090000,7.486090087890625,-0.8313009142875671,-0.7319818139076233,-0.7957751750946045
1758447248930063400,7.4960634765625,-0.7450200915336609,-0.810986340045929,-0.6564236879348755
1758447248940035000,7.50603515625,-0.6278548836708069,-0.802827775478363,-0.47688427567481995
1758447248950007300,7.51600732421875,-0.4751542806625366,-0.7883055210113525,-0.26805993914604187
1758447248959980300,7.525980224609375,-0.3172951340675354,-0.7815656065940857,-0.052734050899744034
1758447248969952000,7.535951904296875,-0.17769356071949005,-0.7708671689033508,0.15180577337741852
1758447248979924200,7.54592431640625,-0.04416852816939354,-0.8080413937568665,0.3295094668865204
1758447248989896200,7.555896240234375,0.12253124266862869,-0.917761504650116,0.4797697961330414
1758447248999869200,7.565869140625,0.30085837841033936,-1.0500375032424927,0.6129680871963501
1758447249009841200,7.575841064453125,0.45810312032699585,-1.2024034261703491,0.7396191954612732
1758447249019813400,7.5858134765625,0.5843457579612732,-1.362160563468933,0.8910513520240784
1758447249029786000,7.5957861328125,0.688825249671936,-1.5826373100280762,1.0233709812164307
1758447249039758000,7.605758056640625,0.7805892825126648,-1.7397209405899048,1.1055042743682861
1758447249049730300,7.615730224609375,0.8459872007369995,-1.8343621492385864,1.0890600681304932
1758447249059702300,7.625702392578125,0.8691303133964539,-1.878178358078003,0.9724029302597046
1758447249069675300,7.63567529296875,0.8530264496803284,-1.8461978435516357,0.7791892886161804
1758447249079647200,7.645647216796875,0.7684372663497925,-1.7747465372085571,0.5616081953048706
1758447249089619200,7.655619140625,0.6540337204933167,-1.6581580638885498,0.3788847327232361
1758447249099591200,7.665591064453125,0.5048413276672363,-1.5141549110412598,0.2610742151737213
1758447249109564400,7.675564453125,0.3098830282688141,-1.3518437147140503,0.21257911622524261
1758447249119536000,7.6855361328125,0.09611082077026367,-1.1937960386276245,0.2205161303281784
1758447249129508400,7.69550830078125,-0.0594545379281044,-1.0336822271347046,0.2658194303512573
1758447249139481300,7.7054814453125,-0.16454553604125977,-0.9231941103935242,0.32568275928497314
1758447249149453000,7.715453125,-0.2226296067237854,-0.8740063309669495,0.39125511050224304
1758447249159425300,7.72542529296875,-0.19894079864025116,-0.8487667441368103,0.4869251847267151
1758447249169397000,7.73539697265625,0.00561048137024045,-0.7920360565185547,0.6158738136291504
1758447249179370200,7.745370361328125,0.31905388832092285,-0.6107147932052612,0.7342678904533386
1758447249189342200,7.75534228515625,0.5759453177452087,-0.3639899492263794,0.8597877025604248
1758447249199314200,7.765314208984375,0.6188291311264038,-0.07134076207876205,0.9252814650535583
1758447249209286100,7.7752861328125,0.21255381405353546,0.34560614824295044,0.9444024562835693
1758447249219259100,7.785259033203125,-0.2421332746744156,0.7079619765281677,0.9853776097297668
1758447249229231000,7.795231201171875,-0.3137264847755432,0.8098233342170715,1.0770622491836548
1758447249239203300,7.805203369140625,-0.15347450971603394,0.7914217114448547,1.1133770942687988
1758447249249176300,7.81517626953125,0.004622448701411486,0.7139711380004883,1.0831435918807983
1758447249259148000,7.82514794921875,0.11508211493492126,0.55148845911026,1.0044394731521606
1758447249269120300,7.835120361328125,0.17543946206569672,0.36862704157829285,0.8724917769432068
1758447249279092200,7.84509228515625,0.21749477088451385,0.16176758706569672,0.732667863368988
1758447249289065200,7.855065185546875,0.303166002035141,-0.0609552301466465,0.5512759685516357
1758447249299037200,7.865037109375,0.3976786434650421,-0.21140146255493164,0.319038450717926
1758447249309009400,7.875009521484375,0.46191731095314026,-0.33853837847709656,0.06901581585407257
1758447249318982100,7.884982177734375,0.47753381729125977,-0.480772465467453,-0.18801571428775787
1758447249328954000,7.8949541015625,0.472958505153656,-0.6138511896133423,-0.41140273213386536
1758447249338926300,7.90492626953125,0.5885825753211975,-0.7301681637763977,-0.5540469288825989
1758447249348898000,7.91489794921875,0.8371327519416809,-0.8137693405151367,-0.6126309037208557
1758447249358871300,7.924871337890625,1.1364648342132568,-0.9704457521438599,-0.6414116621017456
1758447249368843300,7.93484326171875,1.4186102151870728,-1.2121843099594116,-0.6594138741493225
1758447249378815200,7.944815185546875,1.6766548156738281,-1.388386607170105,-0.5901690125465393
1758447249388788200,7.954788330078125,1.8224008083343506,-1.5787818431854248,-0.4525858461856842
1758447249398760200,7.96476025390625,1.8277263641357422,-1.7403028011322021,-0.2420951873064041
1758447249408732200,7.974732177734375,1.6249687671661377,-2.0003511905670166,0.08971098065376282
1758447249418704400,7.984704345703125,1.1740775108337402,-2.265394687652588,0.5977747440338135
1758447249428677400,7.994677490234375,0.5130638480186462,-2.4420385360717773,1.2990604639053345
1758447249438649000,8.004649169921874,0.06829863041639328,-2.067211866378784,1.9389586448669434
1758447249448621300,8.014621337890626,-0.014069746248424053,-1.1098406314849854,2.3698530197143555
1758447249458593000,8.024593017578125,-0.036489035934209824,0.08282191306352615,2.537397861480713
1758447249468566300,8.034566162109375,-0.09286469221115112,1.173961877822876,2.3997838497161865
1758447249478538200,8.044538330078124,-0.12249954789876938,1.9438165426254272,1.9921717643737793
1758447249488510200,8.05451025390625,-0.16684970259666443,2.2738959789276123,1.4613395929336548
1758447249498483200,8.064483154296875,-0.22755566239356995,2.267617702484131,0.9931519031524658
1758447249508455200,8.074455078125,-0.20344074070453644,2.0235073566436768,0.6817119717597961
1758447249518427100,8.08442724609375,-0.09468390047550201,1.6504466533660889,0.5445698499679565
1758447249528399000,8.094399169921875,0.017307084053754807,1.1477864980697632,0.5166580677032471
1758447249538372400,8.104372314453125,0.08222856372594833,0.593032956123352,0.5387780070304871
1758447249548344000,8.114343994140626,0.09823096543550491,0.07796750217676163,0.5745391845703125
1758447249558316300,8.12431640625,0.11079682409763336,-0.30692291259765625,0.6026824116706848
1758447249568288300,8.134288330078125,0.14149241149425507,-0.5458305478096008,0.619636058807373
1758447249578261200,8.14426123046875,0.17323410511016846,-0.6869248747825623,0.6225889921188354
1758447249588233200,8.154233154296875,0.19732052087783813,-0.7629146575927734,0.6222994923591614
1758447249598205400,8.164205322265625,0.2224740833044052,-0.7894256711006165,0.634944498538971
1758447249608178200,8.17417822265625,0.25231292843818665,-0.7670841217041016,0.6668073534965515
1758447249618150100,8.184150146484376,0.2761964201927185,-0.6989098787307739,0.7098498940467834
1758447249628122000,8.1941220703125,0.2808029055595398,-0.5404709577560425,0.7458222508430481
1758447249638094000,8.204093994140624,0.26254481077194214,-0.2935727536678314,0.7936505079269409
1758447249648067300,8.2140673828125,0.254935085773468,-0.0030360035598278046,0.8446247577667236
1758447249658039000,8.2240390625,0.25794047117233276,0.28762325644493103,0.8812522292137146
1758447249668011300,8.23401123046875,0.26878538727760315,0.5683295130729675,0.877177357673645
1758447249677984300,8.243984375,0.3135547339916229,0.8395593762397766,0.7933096289634705
1758447249687956000,8.2539560546875,0.34813109040260315,1.056064486503601,0.6088031530380249
1758447249697928200,8.26392822265625,0.35945644974708557,1.1401402950286865,0.34959715604782104
1758447249707900200,8.273900146484374,0.35523054003715515,1.0639666318893433,0.0860600471496582
1758447249717873200,8.283873046875,0.33196303248405457,0.8604745268821716,-0.13899357616901398
1758447249727845000,8.29384521484375,0.2876403033733368,0.5608236193656921,-0.28323543071746826
1758447249737817300,8.3038173828125,0.20819342136383057,0.23572731018066406,-0.2917615473270416
1758447249747790000,8.3137900390625,0.08329515904188156,-0.08223628252744675,-0.14221440255641937
1758447249757762300,8.32376220703125,-0.05287653207778931,-0.35388457775115967,0.07809746265411377
1758447249767734300,8.333734375,-0.16345150768756866,-0.48015010356903076,0.212739959359169
1758447249777706200,8.343706298828126,-0.2472050040960312,-0.4183320105075836,0.16311754286289215
1758447249787679200,8.35367919921875,-0.339106947183609,-0.16905613243579865,-0.037877075374126434
1758447249797651200,8.363651123046875,-0.4360731840133667,0.2629155218601227,-0.3343747854232788
1758447249807623200,8.373623046875,-0.5270352959632874,0.7806380391120911,-0.7253337502479553
1758447249817595100,8.38359521484375,-0.6311973929405212,1.3287101984024048,-1.2048372030258179
1758447249827568400,8.393568359375,-0.7490260601043701,1.8712639808654785,-1.718813180923462
1758447249837540000,8.4035400390625,-0.8704448938369751,2.292595624923706,-2.1914498805999756
1758447249847512300,8.41351220703125,-0.9910599589347839,2.437861204147339,-2.5511085987091064
1758447249857485300,8.4234853515625,-1.1049433946609497,2.218317747116089,-2.7130696773529053
1758447249867457000,8.43345703125,-1.212968111038208,1.6932673454284668,-2.659749746322632
1758447249877429200,8.44342919921875,-1.23686683177948,1.0417505502700806,-2.501293182373047
1758447249887401200,8.453401123046875,-1.1607134342193604,0.48332005739212036,-2.3512353897094727
1758447249897374200,8.463374267578125,-1.0132962465286255,0.11492179334163666,-2.233658790588379
1758447249907346200,8.47334619140625,-0.8278740048408508,-0.0009896307019516826,-2.117921829223633
1758447249917318100,8.483318115234376,-0.7104224562644958,0.1150786504149437,-1.966938853263855
1758447249927290000,8.4932900390625,-0.7028670907020569,0.3839801549911499,-1.807282567024231
1758447249937263400,8.503263427734375,-0.699204683303833,1.0086514949798584,-1.5908658504486084
1758447249947235000,8.513235107421876,-0.7098743915557861,2.0586998462677,-1.3101916313171387
1758447249957207300,8.523207275390625,-0.7300204038619995,3.105476140975952,-1.0094469785690308
1758447249967180300,8.53318017578125,-0.725886344909668,3.4082276821136475,-0.8471877574920654
1758447249977152000,8.543152099609374,-0.7900866270065308,3.2537593841552734,-0.8201926350593567
1758447249987124200,8.553124267578125,-0.8580694198608398,2.652353525161743,-0.8360565304756165
1758447249997096000,8.563095947265625,-0.9450072646141052,1.0942209959030151,-0.7186872959136963
1758447250007069200,8.573069091796874,-0.9865911602973938,-0.4762040972709656,-0.8195100426673889
1758447250017041200,8.583041259765626,-1.005699872970581,-1.5171232223510742,-1.050080418586731
1758447250027013000,8.59301318359375,-1.0687986612319946,-1.8317844867706299,-1.293942928314209
1758447250036986000,8.602986083984375,-1.1040222644805908,-1.4226404428482056,-1.5230375528335571
1758447250046958300,8.612958251953126,-1.0973515510559082,-0.8004889488220215,-1.7301236391067505
1758447250056930000,8.622929931640625,-1.0369691848754883,-0.4087667167186737,-1.834399938583374
1758447250066902300,8.63290234375,-0.9720708131790161,-0.5371148586273193,-1.9157670736312866
1758447250076875300,8.642875244140624,-0.9212044477462769,-0.7834689617156982,-1.9004861116409302
1758447250086847000,8.652846923828125,-0.9246556758880615,-1.0292632579803467,-1.717599868774414
1758447250096819200,8.662819091796875,-0.8566696643829346,-1.1000785827636719,-1.3771085739135742
1758447250106791200,8.672791259765624,-0.7676056027412415,-1.1413698196411133,-0.9692571759223938
1758447250116764200,8.68276416015625,-0.6477356553077698,-1.0884931087493896,-0.5741205215454102
1758447250126736100,8.692736083984375,-0.5073279142379761,-1.0482956171035767,-0.2373446375131607
1758447250136708400,8.702708251953124,-0.3661652207374573,-1.0481877326965332,0.04964185506105423
1758447250146681000,8.71268115234375,-0.21221745014190674,-1.0928057432174683,0.2914147973060608
1758447250156653000,8.722653076171875,-0.01924959383904934,-1.1560242176055908,0.5180500745773315
1758447250166625300,8.732625244140625,0.20823656022548676,-1.1858177185058594,0.7727441191673279
1758447250176597000,8.742596923828126,0.43566545844078064,-1.2656654119491577,1.046952247619629
1758447250186570200,8.7525703125,0.6354030966758728,-1.4709594249725342,1.3466761112213135
1758447250196542200,8.762542236328125,0.8225377798080444,-1.7651597261428833,1.6130719184875488
1758447250206514200,8.77251416015625,1.0169535875320435,-1.98665452003479,1.788865566253662
1758447250216487200,8.782487060546876,1.1863999366760254,-2.025233268737793,1.802256464958191
1758447250226459400,8.79245947265625,1.2594783306121826,-1.8836103677749634,1.6036118268966675
1758447250236431000,8.80243115234375,1.1782221794128418,-1.5738693475723267,1.142295241355896
1758447250246403300,8.8124033203125,1.0202569961547852,-1.2669410705566406,0.45836225152015686
1758447250256376300,8.822376220703125,0.91147780418396,-1.4556928873062134,-0.012532303109765053
1758447250266348000,8.83234814453125,0.6210371851921082,-1.6533894538879395,-0.1631748080253601
1758447250276320300,8.8423203125,0.22713781893253326,-1.514440894126892,-0.15220259130001068
1758447250286292000,8.8522919921875,-0.08073319494724274,-1.1339995861053467,-0.017245832830667496
1758447250296265200,8.86226513671875,-0.14729037880897522,-0.6605510115623474,0.2586906850337982
1758447250306237200,8.8722373046875,-0.033492978662252426,-0.3562350869178772,0.5564725399017334
1758447250316209200,8.882209228515626,0.05030524730682373,-0.3794114887714386,0.780350387096405
1758447250326182100,8.89218212890625,0.1857946366071701,-0.35985618829727173,0.9582232236862183
1758447250336154000,8.902154052734375,0.4638203978538513,-0.1519080400466919,1.128594160079956
1758447250346126000,8.9121259765625,0.7602584362030029,0.1764855533838272,1.2949753999710083
1758447250356098000,8.92209814453125,0.9577339887619019,0.5285431742668152,1.4097903966903687
1758447250366071300,8.9320712890625,0.82750403881073,0.80918949842453,1.3832141160964966
1758447250376043000,8.94204296875,0.0669633224606514,1.0179426670074463,1.2761225700378418
1758447250386015200,8.95201513671875,-0.4532942473888397,1.2668335437774658,1.2010360956192017
1758447250395987200,8.9619873046875,-0.32545480132102966,1.432839035987854,1.1617094278335571
1758447250405960200,8.971960205078124,-0.008100803010165691,1.1043556928634644,1.1875437498092651
1758447250415932200,8.98193212890625,0.24120596051216125,0.6341865062713623,1.172838807106018
1758447250425904400,8.991904296875,0.3565831482410431,0.3249192237854004,1.0425559282302856
1758447250435877000,9.001877197265625,0.38768622279167175,0.16350877285003662,0.8477336764335632
1758447250445849000,9.01184912109375,0.39349669218063354,0.0401759147644043,0.6250489354133606
1758447250455821300,9.0218212890625,0.4186326861381531,-0.14549434185028076,0.38131487369537354
1758447250465793000,9.03179296875,0.4690508544445038,-0.372020959854126,0.1285499930381775
1758447250475766300,9.041766357421874,0.5011011958122253,-0.586611270904541,-0.13572241365909576
1758447250485738200,9.05173828125,0.5046567916870117,-0.7004848718643188,-0.4001990854740143
1758447250495710200,9.061710205078125,0.5748187899589539,-0.724980890750885,-0.6230185627937317
1758447250505683200,9.07168310546875,0.7565417289733887,-0.5990375876426697,-0.7910485863685608
1758447250515655200,9.0816552734375,1.0166540145874023,-0.3935917615890503,-0.9077544212341309
1758447250525627100,9.091627197265625,1.3158937692642212,-0.25851625204086304,-0.966173529624939
1758447250535599000,9.10159912109375,1.515417218208313,-0.2610156238079071,-0.9893826842308044
1758447250545572400,9.111572265625,1.4886550903320312,-0.33737802505493164,-0.9639013409614563
1758447250555544000,9.1215439453125,1.272735834121704,-0.46002352237701416,-0.8966556787490845
1758447250565516300,9.131516357421875,0.9920618534088135,-0.619022786617279,-0.6804379224777222
1758447250575488000,9.141488037109376,0.7182787656784058,-1.4148828983306885,0.036002740263938904
1758447250585461200,9.151461181640625,0.5906129479408264,-2.522094488143921,1.0944467782974243
1758447250595433200,9.16143310546875,0.45877930521965027,-3.154493570327759,1.8860058784484863
1758447250605405200,9.1714052734375,0.2757679224014282,-3.1661202907562256,2.3909261226654053
1758447250615378200,9.181378173828126,0.10844817757606506,-2.5610263347625732,2.681835412979126
1758447250625350000,9.191349853515625,-0.039852872490882874,-1.651422142982483,2.7943241596221924
1758447250635321600,9.201321533203124,-0.15415307879447937,-0.5795629620552063,2.71319317817688
1758447250645293800,9.2112939453125,-0.22327463328838348,0.6498081088066101,2.3259994983673096
1758447250655266800,9.221266845703125,-0.2658716142177582,1.632659912109375,1.6997151374816895
1758447250665238500,9.231238525390625,-0.272828608751297,2.1056478023529053,1.0463367700576782
1758447250675210800,9.241210693359376,-0.24848704040050507,2.073060989379883,0.5726137161254883
1758447250685182700,9.2511826171875,-0.1665351837873459,1.7146365642547607,0.3457914888858795
1758447250695155700,9.26115576171875,-0.041437190026044846,1.1627737283706665,0.3408891558647156
1758447250705127700,9.271127685546874,0.07823435217142105,0.5006601810455322,0.4448736011981964
1758447250715100000,9.281099853515625,0.1554148942232132,-0.12887702882289886,0.5440055131912231
1758447250725072600,9.29107275390625,0.19531916081905365,-0.6025026440620422,0.5832573175430298
1758447250735044600,9.301044677734374,0.22473403811454773,-0.8663198947906494,0.5669142603874207
1758447250745016800,9.311016845703126,0.25744858384132385,-0.9665607810020447,0.5391330122947693
1758447250754988500,9.320988525390625,0.28057652711868286,-1.0244836807250977,0.5695995688438416
1758447250764961800,9.3309619140625,0.28269162774086,-1.0607740879058838,0.716397225856781
1758447250774933800,9.340933837890624,0.26206091046333313,-1.07937753200531,0.9617931842803955
1758447250784905700,9.35090576171875,0.24374927580356598,-1.0243982076644897,1.2213435173034668
1758447250794877700,9.360877685546875,0.2285330444574356,-0.8715175986289978,1.397194743156433
1758447250804851000,9.370850830078124,0.20894628763198853,-0.5644301176071167,1.4464412927627563
1758447250814822700,9.38082275390625,0.19317825138568878,-0.03803899511694908,1.3297983407974243
1758447250824795000,9.390794921875,0.2169717252254486,0.7301327586174011,1.0024242401123047
1758447250834768000,9.400767822265625,0.2545105814933777,1.4432612657546997,0.5330889225006104
1758447250844739600,9.410739501953126,0.29322201013565063,1.737268090248108,0.08786647021770477
1758447250854711800,9.4207119140625,0.2823334336280823,1.580034852027893,-0.22762596607208252
1758447250864683500,9.43068359375,0.23044998943805695,1.1146527528762817,-0.4109209477901459
1758447250874656800,9.44065673828125,0.13996988534927368,0.48717471957206726,-0.49867531657218933
1758447250884628700,9.450628662109375,-0.004673315212130547,-0.1575416922569275,-0.5806711316108704
1758447250894600700,9.4606005859375,-0.1990976482629776,-0.7289966940879822,-0.7055480480194092
1758447250904572700,9.47057275390625,-0.40605589747428894,-1.133028507232666,-0.8675587773323059
1758447250914545700,9.480545654296876,-0.5775887966156006,-1.2611156702041626,-1.0685118436813354
1758447250924517600,9.490517578125,-0.7213376760482788,-1.1095293760299683,-1.3139586448669434
1758447250934489600,9.500489501953124,-0.8245130777359009,-0.6660603284835815,-1.6006205081939697
1758447250944462800,9.510462890625,-0.8942421078681946,-0.04250538349151611,-1.8878858089447021
1758447250954434600,9.5204345703125,-0.8607136607170105,0.7328150868415833,-2.1340184211730957
1758447250964406800,9.53040673828125,-0.7317240238189697,1.5790846347808838,-2.3385508060455322
1758447250974378800,9.540378662109376,-0.6366779208183289,2.304365634918213,-2.4543862342834473
1758447250984351700,9.550351806640625,-0.7044185996055603,2.7182886600494385,-2.4022138118743896
1758447250994323700,9.56032373046875,-0.9620946049690247,2.7029149532318115,-2.18412184715271
1758447251004296000,9.5702958984375,-1.2449806928634644,2.3157784938812256,-1.8832756280899048
1758447251014268700,9.5802685546875,-1.2043960094451904,2.1097066402435303,-1.5999747514724731
1758447251024240600,9.59024072265625,-0.9781055450439453,2.242429733276367,-1.3745325803756714
1758447251034212900,9.600212890625,-0.7496859431266785,2.6439497470855713,-1.1954498291015625
1758447251044184600,9.6101845703125,-0.6108439564704895,3.0529823303222656,-1.0662785768508911
1758447251054157800,9.62015771484375,-0.5844717025756836,3.0327084064483643,-1.10566246509552
1758447251064129800,9.6301298828125,-0.5546789169311523,2.8722431659698486,-1.150632381439209
1758447251074101800,9.640101806640626,-0.4951394200325012,2.544872522354126,-1.1140810251235962
1758447251084073700,9.65007373046875,-0.42060020565986633,1.5832116603851318,-1.120931625366211
1758447251094046700,9.660046630859375,-0.3004514276981354,0.3718563914299011,-1.1625553369522095
1758447251104018700,9.670018798828124,-0.24138838052749634,-0.5466348528862,-1.3045945167541504
1758447251113990700,9.67999072265625,-0.3073466420173645,-0.9678547978401184,-1.5942342281341553
1758447251123962600,9.689962646484375,-0.5413119792938232,-0.9172198176383972,-1.909392237663269
1758447251133935600,9.699935546875,-0.8188362717628479,-0.5528879761695862,-2.0504531860351562
1758447251143907800,9.709907958984376,-0.9862806797027588,-0.13498391211032867,-2.0658934116363525
1758447251153879600,9.719879638671875,-0.9847815632820129,0.19315694272518158,-2.0186307430267334
1758447251163852800,9.729852783203125,-0.9397733211517334,0.26832014322280884,-1.8962228298187256
1758447251173824800,9.73982470703125,-0.848717451095581,0.11520648002624512,-1.7867305278778076
1758447251183796700,9.749796630859375,-0.7847145199775696,-0.28507301211357117,-1.765796184539795
1758447251193768700,9.759768798828125,-0.716767430305481,-0.772208034992218,-1.8290952444076538
1758447251203741700,9.76974169921875,-0.5949355363845825,-0.9733864068984985,-1.8202663660049438
1758447251213713700,9.779713623046876,-0.5011997222900391,-0.9193021655082703,-1.628227949142456
1758447251223685600,9.789685546875,-0.4434565305709839,-0.8289594650268555,-1.3007738590240479
1758447251233657900,9.799657958984374,-0.3886396288871765,-0.7478952407836914,-0.9055019021034241
1758447251243630600,9.809630615234376,-0.333050936460495,-0.7106624245643616,-0.48749881982803345
1758447251253602800,9.819602783203125,-0.2541334629058838,-0.7550866007804871,-0.10653523355722427
1758447251263574500,9.829574462890625,-0.1324043720960617,-0.8697412610054016,0.2306143045425415
1758447251273547800,9.8395478515625,0.010403372347354889,-0.990602970123291,0.5472529530525208
1758447251283519700,9.849519775390625,0.17719581723213196,-1.106055498123169,0.8520938158035278
1758447251293491700,9.85949169921875,0.3406111001968384,-1.2175716161727905,1.1452513933181763
1758447251303463700,9.869463623046874,0.48325321078300476,-1.3289823532104492,1.4624879360198975
1758447251313436700,9.879436767578126,0.6174237728118896,-1.5410743951797485,1.7706412076950073
1758447251323408600,9.88940869140625,0.7684646844863892,-1.8337645530700684,2.024428606033325
1758447251333380600,9.899380615234374,0.909693717956543,-2.1037917137145996,2.173973321914673
1758447251343353900,9.909353759765626,0.991728663444519,-2.221416473388672,2.1739425659179688
1758447251353325600,9.91932568359375,0.9638757705688477,-2.0762240886688232,1.9526193141937256
1758447251363297800,9.9292978515625,0.7149870991706848,-1.3459869623184204,1.2418149709701538
1758447251373269800,9.939269775390626,0.34504926204681396,-0.5686876773834229,0.14733831584453583
1758447251383242500,9.949242431640625,0.019718045368790627,-0.535649836063385,-0.5863209962844849
1758447251393214700,9.959214599609375,-0.25131985545158386,-0.6463640928268433,-0.7812798619270325
1758447251403186700,9.969186767578124,-0.33520597219467163,-0.8275938034057617,-0.6209136247634888
1758447251413158700,9.97915869140625,-0.3357636332511902,-0.9326704144477844,-0.3298705816268921
1758447251423131600,9.989131591796875,-0.22526641190052032,-0.9505857825279236,-0.012162656523287296
1758447251433104000,9.999103759765624,0.040465932339429855,-0.9496946930885315,0.29034021496772766
1758447251443075600,10.00907568359375,0.3196943700313568,-0.744924783706665,0.5966977477073669
1758447251453047800,10.0190478515625,0.45005664229393005,-0.30554845929145813,0.9162171483039856
1758447251463020800,10.029020751953125,0.43323051929473877,0.23130086064338684,1.1547743082046509
1758447251472992800,10.03899267578125,0.23418347537517548,0.8349081873893738,1.37973153591156
1758447251482964700,10.04896484375,-0.19577376544475555,1.484557032585144,1.5501072406768799
1758447251492937700,10.058937744140625,-0.4812880754470825,1.7828105688095093,1.6479978561401367
1758447251502909700,10.06890966796875,-0.5241526961326599,1.63130784034729,1.6467722654342651
1758447251512881700,10.078881591796875,-0.3534832298755646,1.1783201694488525,1.617264747619629
1758447251522853600,10.088853515625,-0.18294771015644073,0.4844183325767517,1.637656807899475
1758447251532826600,10.09882666015625,-0.03207271546125412,-0.06012964993715286,1.6323238611221313
1758447251542798800,10.108798828125,0.1044856607913971,-0.1478262096643448,1.5758429765701294
1758447251552770600,10.1187705078125,0.16155827045440674,0.005256813485175371,1.462215781211853
1758447251562743600,10.12874365234375,0.2438632696866989,0.12401941418647766,1.2955628633499146
1758447251572715800,10.1387158203125,0.31972286105155945,0.1490483433008194,1.0649198293685913
1758447251582687700,10.148687744140625,0.3931584656238556,0.140297994017601,0.8096598386764526
1758447251592659700,10.15865966796875,0.4111047089099884,0.18142065405845642,0.5445133447647095
1758447251602632700,10.1686328125,0.4116818308830261,0.2825342118740082,0.2550956904888153
1758447251612604700,10.178604736328126,0.39023271203041077,0.4644758105278015,-0.047985102981328964
1758447251622576600,10.18857666015625,0.417112797498703,0.7359451055526733,-0.36470261216163635
1758447251632548900,10.198548828125,0.46444329619407654,0.9432058930397034,-0.6782376170158386
1758447251642521900,10.20852197265625,0.5165440440177917,0.978797197341919,-0.9395584464073181
1758447251652494000,10.218494140625,0.6080931425094604,0.7662675976753235,-1.0734366178512573
1758447251662465800,10.2284658203125,0.6881799697875977,0.34678512811660767,-1.0572611093521118
1758447251672438000,10.23843798828125,0.684637725353241,-0.1597507894039154,-0.9421712756156921
1758447251682411000,10.248410888671875,0.6503580212593079,-0.6713235378265381,-0.6897499561309814
1758447251692382700,10.2583828125,0.6611331701278687,-1.585068941116333,-0.11335399001836777
1758447251702355000,10.26835498046875,0.6167595982551575,-2.5420665740966797,0.5527087450027466
1758447251712328000,10.278327880859376,0.4733095169067383,-3.1238410472869873,1.054192304611206
1758447251722300000,10.2882998046875,0.3212725520133972,-3.21240496635437,1.367161750793457
1758447251732271900,10.29827197265625,0.2412525713443756,-3.011047601699829,1.561231017112732
1758447251742244000,10.308244140625,0.23898887634277344,-2.717740774154663,1.797188401222229
1758447251752216800,10.318216796875,0.22306238114833832,-2.259774923324585,2.1775729656219482
1758447251762188800,10.328188720703125,0.14193956553936005,-1.4371322393417358,2.5448381900787354
1758447251772161000,10.3381611328125,-0.013463877141475677,-0.3442676365375519,2.696331739425659
1758447251782132700,10.3481328125,-0.1456858366727829,0.7957490682601929,2.542163848876953
1758447251792106000,10.35810595703125,-0.20628713071346283,1.77430260181427,2.1811163425445557
1758447251802078000,10.368077880859374,-0.21676214039325714,2.4346742630004883,1.7586023807525635
1758447251812050000,10.3780498046875,-0.1998545229434967,2.6732561588287354,1.4206792116165161
1758447251822023000,10.38802294921875,-0.19153374433517456,2.497973918914795,1.2472877502441406
1758447251831995100,10.3979951171875,-0.15733955800533295,1.9893032312393188,1.2282525300979614
1758447251841966800,10.407966796875,-0.07931612432003021,1.285889744758606,1.2519896030426025
1758447251851939000,10.41793896484375,0.03809385746717453,0.6054489016532898,1.207414150238037
1758447251861912000,10.427912109375,0.1449880748987198,0.0702643096446991,1.091922640800476
1758447251871883800,10.4378837890625,0.207229346036911,-0.32616186141967773,0.9537330865859985
1758447251881856000,10.44785595703125,0.2315959483385086,-0.6334453821182251,0.8424694538116455
1758447251891827700,10.45782763671875,0.2406214028596878,-0.88585364818573,0.7950047254562378
1758447251901801000,10.467801025390624,0.23402075469493866,-1.0281471014022827,0.8060797452926636
1758447251911773000,10.47777294921875,0.22967447340488434,-0.970507800579071,0.8202860951423645
1758447251921745000,10.487744873046875,0.24426433444023132,-0.6256500482559204,0.7521675229072571
1758447251931718000,10.4977177734375,0.287433922290802,-0.039689090102910995,0.5240315198898315
1758447251941689900,10.50768994140625,0.31710898876190186,0.583396315574646,0.16446590423583984
1758447251951661800,10.517661865234375,0.3332458734512329,0.9658885598182678,-0.1887717843055725
1758447251961634000,10.527634033203125,0.32646146416664124,0.9573728442192078,-0.4516785144805908
1758447251971607000,10.53760693359375,0.28389668464660645,0.6292216181755066,-0.6099382042884827
1758447251981578800,10.547578857421875,0.1895022839307785,0.1287502497434616,-0.6779289841651917
1758447251991551000,10.557551025390625,0.025478195399045944,-0.39333850145339966,-0.6805588006973267
1758447252001523000,10.56752294921875,-0.19982682168483734,-0.7939964532852173,-0.6614953875541687
1758447252011496000,10.577495849609376,-0.4464464485645294,-0.9313551187515259,-0.6507101058959961
1758447252021468000,10.587468017578125,-0.6593297123908997,-0.7410954236984253,-0.7380793690681458
1758447252031440100,10.597440185546875,-0.7934139966964722,-0.2883332669734955,-0.95660001039505
1758447252041412900,10.607412841796876,-0.9249590039253235,0.2943243086338043,-1.2716642618179321
1758447252051384800,10.617384765625,-1.0728996992111206,0.9458363056182861,-1.5843536853790283
1758447252061357000,10.627357177734375,-1.1609268188476562,1.6806035041809082,-1.8395321369171143
1758447252071328800,10.637328857421876,-1.2080473899841309,2.3780062198638916,-2.0273749828338623
1758447252081302000,10.647302001953125,-1.2451295852661133,2.7622640132904053,-2.1666266918182373
1758447252091274000,10.65727392578125,-1.2652009725570679,2.718047857284546,-2.234295129776001
1758447252101246000,10.667245849609374,-1.227149248123169,2.3684518337249756,-2.2346317768096924
1758447252111218000,10.677218017578125,-1.1313294172286987,1.9605003595352173,-2.2022922039031982
1758447252121191000,10.68719091796875,-1.0121582746505737,1.7221150398254395,-2.1325318813323975
1758447252131163000,10.697162841796874,-0.8484511375427246,1.7283366918563843,-2.0276939868927
1758447252141135000,10.707135009765626,-0.7234381437301636,1.9927356243133545,-1.8740912675857544
1758447252151106800,10.71710693359375,-0.7079960703849792,2.450190782546997,-1.63443922996521
1758447252161079800,10.727079833984375,-0.7269515991210938,2.9194154739379883,-1.3602081537246704
1758447252171052000,10.737052001953124,-0.725271463394165,3.0480003356933594,-1.0864365100860596
1758447252181023700,10.747023681640625,-0.6696963310241699,2.7176873683929443,-0.817858099937439
1758447252190997000,10.7569970703125,-0.7244085669517517,1.862784504890442,-0.595122218132019
1758447252200969000,10.766968994140624,-0.7368953227996826,0.8314498066902161,-0.5392166376113892
1758447252210941000,10.77694091796875,-0.7208681702613831,0.15192241966724396,-0.6788416504859924
1758447252220913000,10.786912841796875,-0.6981511116027832,-0.058339737355709076,-0.9265329241752625
1758447252230886000,10.796885986328125,-0.7049448490142822,-0.18995103240013123,-1.2892231941223145
1758447252240857900,10.80685791015625,-0.8069289922714233,-0.24270717799663544,-1.6207904815673828
1758447252250829800,10.816829833984375,-0.9325564503669739,-0.14542298018932343,-1.8558876514434814
1758447252260802000,10.826802001953125,-0.9326083660125732,-0.09149955958127975,-2.067636489868164
1758447252270774800,10.83677490234375,-0.80530846118927,-0.08980552107095718,-2.194638252258301
1758447252280747000,10.8467470703125,-0.6504728198051453,-0.1977415680885315,-2.2327356338500977
1758447252290719000,10.856718994140625,-0.5564630031585693,-0.4752645194530487,-2.209528923034668
1758447252300692000,10.86669189453125,-0.4651589095592499,-0.8024202585220337,-2.126054286956787
1758447252310664000,10.876663818359376,-0.32876670360565186,-1.0371254682540894,-1.985769271850586
1758447252320636200,10.88663623046875,-0.19038273394107819,-1.1184402704238892,-1.7675455808639526
1758447252330607900,10.89660791015625,-0.09152831882238388,-1.000020146369934,-1.4225636720657349
1758447252340580900,10.906580810546876,-0.05908355861902237,-0.8038357496261597,-0.9715243577957153
1758447252350553000,10.916552978515625,-0.051905807107686996,-0.6721501350402832,-0.46308189630508423
1758447252360524800,10.92652490234375,0.009138104505836964,-0.7312979102134705,0.015108113177120686
1758447252370497000,10.9364970703125,0.13176469504833221,-0.9404444694519043,0.4334859251976013
1758447252380470000,10.946469970703125,0.3026578724384308,-1.118666172027588,0.8072683215141296
1758447252390442000,10.95644189453125,0.503226101398468,-1.2197381258010864,1.1586897373199463
1758447252400414000,10.9664140625,0.6771292090415955,-1.3301951885223389,1.5183837413787842
1758447252410387000,10.976386962890626,0.8299118280410767,-1.5681883096694946,1.889970302581787
1758447252420359000,10.98635888671875,0.9057376384735107,-1.902765154838562,2.282510995864868
1758447252430331000,10.996330810546874,0.9118269085884094,-2.250417470932007,2.6039938926696777
1758447252440302800,11.006302734375,0.8928351402282715,-2.461620807647705,2.7721564769744873
1758447252450275800,11.01627587890625,0.8271666169166565,-2.374295473098755,2.6944453716278076
1758447252460248000,11.026248046875,0.6143643856048584,-0.597284197807312,1.447220802307129
1758447252470219800,11.0362197265625,0.22838203608989716,0.5032570362091064,-0.42015013098716736
1758447252480192000,11.04619189453125,-0.11300937831401825,-0.6364235877990723,-0.9035729765892029
1758447252490165000,11.0561650390625,-0.309217244386673,-1.3519161939620972,-0.7632366418838501
1758447252500137000,11.066136962890624,-0.34003159403800964,-1.5800952911376953,-0.31453025341033936
1758447252510109000,11.07610888671875,-0.3809582591056824,-1.435463786125183,0.16754478216171265
1758447252520081200,11.0860810546875,-0.37850630283355713,-1.0670676231384277,0.5366684794425964
1758447252530054000,11.096053955078125,-0.19454418122768402,-0.6242729425430298,0.8210046291351318
1758447252540025900,11.10602587890625,0.12243696302175522,-0.12936970591545105,1.0743905305862427
1758447252549998000,11.115998046875,0.4585385322570801,0.3343401551246643,1.2521547079086304
1758447252559970800,11.125970703125,0.6061690449714661,0.6906636357307434,1.274671196937561
1758447252569943000,11.135943115234374,0.5532203316688538,1.1367236375808716,1.1610300540924072
1758447252579914800,11.145914794921875,0.156942218542099,1.6925994157791138,1.041572093963623
1758447252589887000,11.155886962890625,-0.24438124895095825,1.6526978015899658,1.0098187923431396
1758447252599860000,11.16585986328125,-0.4816609025001526,0.8229849338531494,1.127116322517395
1758447252609832000,11.17583203125,-0.4757896959781647,-0.27882975339889526,1.3632875680923462
1758447252619804000,11.185803955078125,-0.26134586334228516,-1.3022562265396118,1.5772252082824707
1758447252629775600,11.195775634765624,0.01948421820998192,-1.6801837682724,1.6726020574569702
1758447252639748600,11.20574853515625,0.1982627511024475,-1.4207581281661987,1.6113046407699585
1758447252649720300,11.21572021484375,0.23693664371967316,-0.8798620700836182,1.4141952991485596
1758447252659692500,11.225692626953125,0.2314199060201645,-0.3123842775821686,1.1317715644836426
1758447252669665500,11.23566552734375,0.21568302810192108,0.2521664798259735,0.8314439654350281
1758447252679637500,11.245637451171875,0.20695237815380096,0.7257079482078552,0.5241391062736511
1758447252689609500,11.255609375,0.21843193471431732,0.9964198470115662,0.19535590708255768
1758447252699581400,11.26558154296875,0.23050564527511597,1.0786916017532349,-0.1699885129928589
1758447252709554400,11.275554443359376,0.30499905347824097,1.0332615375518799,-0.5626447200775146
1758447252719526700,11.285526611328125,0.3816450834274292,0.8561716675758362,-0.9506055116653442
1758447252729498400,11.295498291015624,0.4245494306087494,0.5672652721405029,-1.2929832935333252
1758447252739470600,11.305470703125,0.4897412061691284,0.19651412963867188,-1.571235179901123
1758447252749443600,11.315443603515625,0.5782827734947205,-0.28490230441093445,-1.6695306301116943
1758447252759415300,11.325415283203125,0.5985428094863892,-0.8779432773590088,-1.5459743738174438
1758447252769387500,11.335387451171876,0.55201256275177,-1.3712680339813232,-1.200721263885498
1758447252779359500,11.345359375,0.5143341422080994,-1.6604639291763306,-0.7243960499763489
1758447252789332500,11.35533251953125,0.5197933912277222,-1.7637593746185303,-0.16557538509368896
1758447252799304400,11.365304443359374,0.5272411704063416,-1.9950770139694214,0.5052583813667297
1758447252809276700,11.375276611328125,0.5163552165031433,-2.2013487815856934,1.2395861148834229
1758447252819249400,11.38524951171875,0.44621342420578003,-2.230429172515869,1.8936026096343994
1758447252829221400,11.395221435546874,0.2993166744709015,-1.9641180038452148,2.3537213802337646
1758447252839193600,11.405193603515626,0.12427454441785812,-1.504507303237915,2.6009466648101807
1758447252849165300,11.415165283203125,0.0026293389964848757,-1.0213656425476074,2.666536808013916
1758447252859138600,11.425138671875,-0.039260320365428925,-0.5489294528961182,2.636744737625122
1758447252869110500,11.435110595703126,-0.022843264043331146,0.019659189507365227,2.544057607650757
1758447252879082500,11.44508251953125,0.002319879597052932,0.5966583490371704,2.382993221282959
1758447252889055500,11.455055419921875,0.024148479104042053,1.0887178182601929,2.199608087539673
1758447252899027700,11.46502783203125,0.042392462491989136,1.4447579383850098,2.0231292247772217
1758447252908999400,11.47499951171875,0.04651370644569397,1.5728647708892822,1.8807927370071411
1758447252918971600,11.4849716796875,0.014466291293501854,1.4358755350112915,1.7428679466247559
1758447252928944400,11.4949443359375,-0.03948855400085449,1.1306215524673462,1.5740102529525757
1758447252938916400,11.504916259765626,-0.05531278997659683,0.7773354649543762,1.3729304075241089
1758447252948888600,11.514888671875,-0.007704258430749178,0.4282296299934387,1.188531517982483
1758447252958860300,11.5248603515625,0.06609859317541122,0.09565115720033646,1.0716322660446167
1758447252968833500,11.53483349609375,0.11484216153621674,-0.21256393194198608,1.0343291759490967
1758447252978805500,11.544805419921875,0.10514585673809052,-0.4520963728427887,1.04177725315094
1758447252988777500,11.554777587890625,0.050823234021663666,-0.5410981178283691,1.0239739418029785
1758447252998750500,11.56475048828125,0.03584614768624306,-0.3664344549179077,0.8865527510643005
1758447253008722400,11.574722412109375,0.11487331986427307,0.06824643164873123,0.5823321342468262
1758447253018694400,11.5846943359375,0.23913641273975372,0.5811592936515808,0.15483778715133667
1758447253028667400,11.59466748046875,0.34709084033966064,0.9060326814651489,-0.2709124684333801
1758447253038639600,11.6046396484375,0.40082862973213196,0.9026126861572266,-0.5851984620094299
1758447253048611300,11.614611328125,0.3964482843875885,0.5891897678375244,-0.7612965703010559
1758447253058583600,11.62458349609375,0.3552553057670593,0.062733955681324,-0.7952867150306702
1758447253068556500,11.634556640625,0.25490179657936096,-0.5631728172302246,-0.7371576428413391
1758447253078528500,11.644528564453125,0.10588967800140381,-1.123286485671997,-0.6653910875320435
1758447253088500500,11.65450048828125,-0.06970956921577454,-1.450245976448059,-0.6408489942550659
1758447253098473500,11.664473388671874,-0.2589159905910492,-1.4134479761123657,-0.6984190344810486
1758447253108445400,11.674445556640626,-0.44932320713996887,-0.970277726650238,-0.8784777522087097
1758447253118417400,11.68441748046875,-0.6455116271972656,-0.25461283326148987,-1.1565158367156982
1758447253128389400,11.694389404296874,-0.8451650738716125,0.42499789595603943,-1.4499170780181885
1758447253138362400,11.7043623046875,-0.996877908706665,1.0377970933914185,-1.720289707183838
1758447253148334600,11.71433447265625,-1.061072587966919,1.732833743095398,-1.903043508529663
1758447253158306300,11.724306396484375,-1.0787315368652344,2.426704168319702,-2.0114028453826904
1758447253168279300,11.734279296875,-1.112760066986084,2.8422324657440186,-2.080230712890625
1758447253178251500,11.74425146484375,-1.2107754945755005,2.773069143295288,-2.095202922821045
1758447253188223500,11.754223388671875,-1.2522790431976318,2.306882858276367,-2.0652825832366943
1758447253198195500,11.764195556640624,-1.1367205381393433,1.7756402492523193,-2.065673589706421
1758447253208168400,11.77416845703125,-0.9202291965484619,1.4856899976730347,-2.1043405532836914
1758447253218140400,11.784140380859375,-0.7106589674949646,1.53134286403656,-2.1288998126983643
1758447253228112400,11.7941123046875,-0.5639893412590027,1.8686996698379517,-2.0831475257873535
1758447253238085600,11.804085693359376,-0.5061204433441162,2.285470724105835,-1.9616771936416626
1758447253248057300,11.814057373046875,-0.5069108605384827,2.5990657806396484,-1.7928956747055054
1758447253258029600,11.824029541015625,-0.5867646932601929,2.753730058670044,-1.585580587387085
1758447253268002600,11.83400244140625,-0.6157342791557312,2.6469719409942627,-1.2422528266906738
1758447253277974300,11.843974365234375,-0.5786985158920288,2.060938596725464,-0.7580504417419434
1758447253287946500,11.853946533203125,-0.5377968549728394,0.8211646676063538,-0.5188761949539185
1758447253297918500,11.86391845703125,-0.5019608736038208,-0.2923876643180847,-0.6618567705154419
1758447253307891500,11.873891357421876,-0.47862836718559265,-0.8882848620414734,-1.1556316614151
1758447253317863400,11.883863525390625,-0.6162112355232239,-0.7347256541252136,-1.712013840675354
1758447253327835600,11.893835693359375,-0.7705729007720947,-0.4819091260433197,-2.1406424045562744
1758447253337808400,11.903808349609376,-0.8656655550003052,-0.11995729804039001,-2.3429384231567383
1758447253347780400,11.9137802734375,-0.8688387274742126,0.09175841510295868,-2.407379150390625
1758447253357752600,11.923752685546875,-0.8246273398399353,-0.06541895121335983,-2.416116952896118
1758447253367724500,11.933724609375,-0.7411537170410156,-0.5195555686950684,-2.460366725921631
1758447253377697500,11.943697509765625,-0.6225477457046509,-0.8903676867485046,-2.424255132675171
1758447253387669500,11.95366943359375,-0.5106906890869141,-0.9052611589431763,-2.1698997020721436
1758447253397641500,11.963641357421874,-0.43303823471069336,-0.7606523036956787,-1.751841425895691
1758447253407614500,11.973614501953126,-0.3643505275249481,-0.6041378378868103,-1.2620203495025635
1758447253417586700,11.983586669921875,-0.3111459016799927,-0.4784981310367584,-0.7706458568572998
1758447253427558400,11.993558349609375,-0.28158560395240784,-0.4621066451072693,-0.3198104798793793
1758447253437531400,12.003531494140624,-0.23885758221149445,-0.594447672367096,0.05798766762018204
1758447253447503600,12.013503662109375,-0.1855328381061554,-0.8187955021858215,0.3634844720363617
1758447253457475300,12.023475341796875,-0.09097544848918915,-1.0860048532485962,0.6472370624542236
1758447253467447600,12.033447509765624,0.08591011166572571,-1.3555558919906616,0.9593971371650696
1758447253477420500,12.043420654296876,0.2928102910518646,-1.6326156854629517,1.3160955905914307
1758447253487392500,12.053392578125,0.4903278946876526,-1.9941092729568481,1.701839566230774
1758447253497364500,12.063364501953124,0.6596335768699646,-2.4107930660247803,2.110394239425659
1758447253507337500,12.07333740234375,0.796042263507843,-2.7533998489379883,2.4865212440490723
1758447253517309400,12.083309326171875,0.8860883116722107,-2.9313201904296875,2.704885244369507
1758447253527281400,12.093281494140625,0.834814190864563,-2.6010963916778564,2.5224239826202393
1758447253537253400,12.10325341796875,0.589668869972229,-1.3201051950454712,1.5398602485656738
1758447253547226400,12.113226318359375,0.15167634189128876,-0.6258947849273682,0.3881453275680542
1758447253557198600,12.123198486328125,-0.23369477689266205,-0.7713715434074402,-0.12160073220729828
1758447253567170300,12.13317041015625,-0.28909599781036377,-0.9453614354133606,-0.1998997926712036
1758447253577143600,12.1431435546875,-0.27051857113838196,-1.078099012374878,-0.06155950203537941
1758447253587115500,12.153115478515625,-0.28643736243247986,-1.189034342765808,0.12029818445444107
1758447253597087500,12.16308740234375,-0.2181784063577652,-1.275359869003296,0.2439729869365692
1758447253607059500,12.1730595703125,0.018487397581338882,-1.2779556512832642,0.3052525818347931
1758447253617032400,12.183032470703125,0.28921929001808167,-0.9360052347183228,0.42375820875167847
1758447253627004400,12.19300439453125,0.4781079888343811,-0.23762720823287964,0.6086745262145996
1758447253636976000,12.20297607421875,0.4303726851940155,0.531766414642334,0.8019773960113525
1758447253646949400,12.212949462890625,0.0682794526219368,1.0775139331817627,0.925008237361908
1758447253656921300,12.22292138671875,-0.35239773988723755,1.253753900527954,1.0891313552856445
1758447253666893300,12.232893310546874,-0.45909807085990906,1.207270622253418,1.3131167888641357
1758447253676866300,12.2428662109375,-0.24808570742607117,0.9455699920654297,1.496134877204895
1758447253686838300,12.25283837890625,-0.07511072605848312,0.45552119612693787,1.6022202968597412
1758447253696810200,12.262810302734374,0.061578407883644104,-0.06840275973081589,1.605225920677185
1758447253706782500,12.272782470703126,0.1645660400390625,-0.33057233691215515,1.4964821338653564
1758447253716755500,12.28275537109375,0.24448058009147644,-0.23166678845882416,1.3155914545059204
1758447253726727200,12.29272705078125,0.3198445737361908,0.04465428739786148,1.090188980102539
1758447253736699400,12.302699462890626,0.411390483379364,0.36259523034095764,0.8101511597633362
1758447253746672400,12.31267236328125,0.4888852536678314,0.6714857220649719,0.5077337622642517
