time,seconds_elapsed,z,y,x
1758447241475776000,0.04177587890625,0.10415112972259521,-0.08918047696352005,0.49145403504371643
1758447241485749000,0.0517490234375,0.1385560929775238,-0.1170264333486557,0.5666316747665405
1758447241495721200,0.06172119140625,0.1702093631029129,-0.10589974373579025,0.6459670066833496
1758447241505693000,0.07169287109375,0.18651697039604187,-0.07425101101398468,0.7450799942016602
1758447241515666000,0.081666015625,0.1676107943058014,-0.04224519804120064,0.8358849287033081
1758447241525638100,0.09163818359375,0.12139882147312164,-0.07048908621072769,0.894535481929779
1758447241535611100,0.101611083984375,0.09314695000648499,-0.15567214787006378,0.8834735155105591
1758447241545583000,0.1115830078125,0.08976446837186813,-0.2609703242778778,0.8148614168167114
1758447241555555000,0.12155517578125,0.08109169453382492,-0.34942659735679626,0.7432542443275452
1758447241565528000,0.131528076171875,0.05651870742440224,-0.38706186413764954,0.6751993298530579
1758447241575500000,0.1415,-0.006234955042600632,-0.4063465893268585,0.6043411493301392
1758447241585472000,0.151471923828125,-0.0771930143237114,-0.4046453535556793,0.5179135799407959
1758447241595445200,0.1614453125,-0.11535333842039108,-0.3320395350456238,0.42477789521217346
1758447241605417000,0.1714169921875,-0.10209053009748459,-0.19027309119701385,0.3337494432926178
1758447241615389200,0.18138916015625,-0.02716873213648796,-0.012913553975522518,0.23757433891296387
1758447241625362200,0.191362060546875,0.04692360386252403,0.16873693466186523,0.14527903497219086
1758447241635334100,0.201334228515625,0.07878756523132324,0.3155832886695862,0.05094918608665466
1758447241645306000,0.21130615234375,0.06522461771965027,0.4311312139034271,-0.04528173804283142
1758447241655278000,0.221278076171875,0.03839825466275215,0.5524841547012329,-0.13230155408382416
1758447241665251300,0.231251220703125,0.011999936774373055,0.6735516786575317,-0.21641643345355988
1758447241675223000,0.24122314453125,-0.013517901301383972,0.7392012476921082,-0.28520122170448303
1758447241685195300,0.2511953125,-0.014176767319440842,0.7485300302505493,-0.326145738363266
1758447241695168300,0.261168212890625,-0.014120042324066162,0.6927932500839233,-0.33472540974617004
1758447241705140200,0.27114013671875,-0.013877427205443382,0.5857892632484436,-0.32031476497650146
1758447241715112200,0.2811123046875,-0.022072050720453262,0.43980109691619873,-0.2853793799877167
1758447241725085200,0.291085205078125,-0.0453006736934185,0.2861572206020355,-0.22517354786396027
1758447241735057200,0.30105712890625,-0.08318425714969635,0.15181691944599152,-0.13722726702690125
1758447241745029000,0.311029052734375,-0.11972655355930328,0.053025104105472565,-0.046437978744506836
1758447241755001300,0.32100146484375,-0.1477196365594864,-0.010866382159292698,0.02072138711810112
1758447241764974000,0.33097412109375,-0.15370722115039825,-0.028141774237155914,0.05453021824359894
1758447241774946300,0.3409462890625,-0.14895181357860565,-0.013573387637734413,0.05927218869328499
1758447241784918300,0.350918212890625,-0.1242736428976059,0.02869710512459278,0.035441428422927856
1758447241794891000,0.36089111328125,-0.07967447489500046,0.10836771130561829,-0.0054133180528879166
1758447241804863200,0.37086328125,-0.030620645731687546,0.18487872183322906,-0.05508233606815338
1758447241814835200,0.380835205078125,0.011503675952553749,0.22436107695102692,-0.10653184354305267
1758447241824808200,0.39080810546875,0.04034145176410675,0.2302463948726654,-0.14634689688682556
1758447241834780200,0.4007802734375,0.05575438216328621,0.2145901769399643,-0.1694064736366272
1758447241844752400,0.41075244140625,0.041697416454553604,0.1704871654510498,-0.16732095181941986
1758447241854725000,0.42072509765625,0.016977880150079727,0.1270996332168579,-0.1439436972141266
1758447241864697300,0.430697265625,-0.013202127069234848,0.07327928394079208,-0.10535953938961029
1758447241874669300,0.44066943359375,-0.03897680714726448,0.02245778776705265,-0.06122373789548874
1758447241884641300,0.450641357421875,-0.05219833925366402,-0.015454440377652645,-0.01971118152141571
1758447241894614300,0.4606142578125,-0.06525535881519318,-0.03463463485240936,0.02407495677471161
1758447241904586200,0.470586181640625,-0.07130739092826843,-0.038743358105421066,0.07528035342693329
1758447241914558200,0.48055810546875,-0.06438130885362625,-0.05023439973592758,0.11441734433174133
1758447241924531200,0.49053125,-0.04820740222930908,-0.06257149577140808,0.13022480905056
1758447241934503400,0.50050341796875,-0.027658943086862564,-0.06158934906125069,0.1254967749118805
1758447241944475100,0.51047509765625,-0.013650450855493546,-0.032346777617931366,0.10352756083011627
1758447241954448100,0.5204482421875,-0.008872626349329948,0.002465792465955019,0.061825960874557495
1758447241964420400,0.53042041015625,-0.020122084766626358,0.024696264415979385,0.023874321952462196
1758447241974392000,0.54039208984375,-0.02762770839035511,0.047829147428274155,-0.003599455114454031
1758447241984364300,0.5503642578125,-0.03506218641996384,0.0656808465719223,-0.02183784916996956
1758447241994337300,0.560337158203125,-0.048399150371551514,0.07524549216032028,-0.036299727857112885
1758447242004309200,0.570309326171875,-0.06155889481306076,0.08590266853570938,-0.041048143059015274
1758447242014281200,0.58028125,-0.07642047107219696,0.08794629573822021,-0.031451646238565445
1758447242024254200,0.590254150390625,-0.09416431188583374,0.08092726767063141,-0.011571679264307022
1758447242034226200,0.60022607421875,-0.11301987618207932,0.07111452519893646,0.01631578803062439
1758447242044198400,0.610198486328125,-0.1273341029882431,0.05984243378043175,0.047344278544187546
1758447242054171400,0.62017138671875,-0.13413642346858978,0.03530210629105568,0.07286673039197922
1758447242064143000,0.63014306640625,-0.132699117064476,0.0068475608713924885,0.08438996225595474
1758447242074115300,0.640115234375,-0.12013527005910873,-0.01692378893494606,0.0747605711221695
1758447242084087000,0.650087158203125,-0.10483834147453308,-0.020553411915898323,0.04264418035745621
1758447242094060300,0.660060302734375,-0.08817552030086517,0.0033852942287921906,0.007678631227463484
1758447242104032300,0.6700322265625,-0.08231629431247711,0.025837073102593422,-0.013341698795557022
1758447242114004200,0.680004150390625,-0.09035150706768036,0.04053010046482086,-0.0173008032143116
1758447242123977200,0.689977294921875,-0.10024567693471909,0.04137485474348068,-0.022084638476371765
1758447242133949200,0.69994921875,-0.10315815359354019,0.0433100126683712,-0.0337110310792923
1758447242143921200,0.709921142578125,-0.098046213388443,0.05514989420771599,-0.04742364585399628
1758447242153894100,0.71989404296875,-0.09249728918075562,0.05612602457404137,-0.061881523579359055
1758447242163866400,0.729866455078125,-0.08522526174783707,0.03853051736950874,-0.0694105476140976
1758447242173838000,0.739838134765625,-0.07498772442340851,0.01812066324055195,-0.06500121206045151
1758447242183810300,0.749810302734375,-0.060128893703222275,0.004163568839430809,-0.04563417658209801
1758447242193783300,0.759783203125,-0.054610706865787506,-0.006169704720377922,-0.020715683698654175
1758447242203755300,0.76975537109375,-0.05101383849978447,-0.019195491448044777,0.004220558330416679
1758447242213727200,0.779727294921875,-0.05062790960073471,-0.034054938703775406,0.02593848668038845
1758447242223700200,0.7897001953125,-0.04863639548420906,-0.037413451820611954,0.036184731870889664
1758447242233672200,0.799672119140625,-0.047308698296546936,-0.03240561857819557,0.03953452408313751
1758447242243644200,0.80964404296875,-0.04191473126411438,-0.02721644751727581,0.03639519214630127
1758447242253617400,0.819617431640625,-0.03684749826788902,-0.021384719759225845,0.031797632575035095
1758447242263589000,0.829589111328125,-0.039408128708601,-0.02081799879670143,0.0303182452917099
1758447242273561300,0.839561279296875,-0.04793861135840416,-0.01574365794658661,0.03359305113554001
1758447242283533300,0.849533203125,-0.050561558455228806,-0.004841210320591927,0.03426976129412651
1758447242293506000,0.859506103515625,-0.046347033232450485,-0.001620529335923493,0.026921002194285393
1758447242303478300,0.869478271484375,-0.035995855927467346,-0.002756633795797825,0.00911750365048647
1758447242313450200,0.8794501953125,-0.028658658266067505,-0.009964600205421448,-0.012805338948965073
1758447242323423200,0.88942333984375,-0.028003521263599396,-0.009920923970639706,-0.032621920108795166
1758447242333395200,0.899395263671875,-0.0301287230104208,0.002244385425001383,-0.052015334367752075
1758447242343367200,0.9093671875,-0.03725587576627731,0.023072969168424606,-0.05679650604724884
1758447242353340200,0.919340087890625,-0.042983267456293106,0.04574526846408844,-0.04775107279419899
1758447242363312000,0.92931201171875,-0.0522068589925766,0.053776033222675323,-0.021418267861008644
1758447242373284000,0.9392841796875,-0.04486368969082832,0.04812818020582199,0.006317864637821913
1758447242383256300,0.94925634765625,-0.034706126898527145,0.02508384734392166,0.016141999512910843
1758447242393229300,0.959229248046875,-0.016421012580394745,-0.002323227934539318,0.009724929928779602
1758447242403201000,0.969200927734375,0.000608836067840457,-0.023140091449022293,-0.007526494562625885
1758447242413173200,0.97917333984375,0.010071465745568275,-0.04060489684343338,-0.028090983629226685
1758447242423146200,0.989146240234375,0.010982267558574677,-0.0360703319311142,-0.047595709562301636
1758447242433118200,0.9991181640625,0.009163100272417068,-0.02064669504761696,-0.0645412802696228
1758447242443090200,1.009090087890625,0.007043756544589996,-0.006562301889061928,-0.07332970947027206
1758447242453063200,1.019063232421875,0.010072417557239532,0.016041070222854614,-0.0690949335694313
1758447242463035100,1.02903515625,0.0248646792024374,0.04524555802345276,-0.05779407173395157
1758447242473007000,1.039007080078125,0.03372570127248764,0.049928147345781326,-0.03723854571580887
1758447242482979300,1.048979248046875,0.027842778712511063,0.03429326042532921,-0.0038068173453211784
1758447242492952000,1.0589521484375,0.01658707857131958,0.01277194544672966,0.025573892518877983
1758447242502924300,1.06892431640625,-0.002001784276217222,-0.010057204402983189,0.04168947786092758
1758447242512896300,1.078896240234375,-0.021023716777563095,-0.023030731827020645,0.029140541329979897
1758447242522869000,1.088868896484375,-0.039743874222040176,-0.01704075001180172,-0.004257630556821823
1758447242532841200,1.09884130859375,-0.05636987462639809,-0.002473733387887478,-0.04677597060799599
1758447242542813200,1.108813232421875,-0.06864225119352341,0.01711275242269039,-0.08251319825649261
1758447242552786200,1.1187861328125,-0.08230096101760864,0.038453228771686554,-0.10617930442094803
1758447242562758100,1.128758056640625,-0.08913303166627884,0.05542049556970596,-0.1129932627081871
1758447242572730400,1.13873046875,-0.09149746596813202,0.06625491380691528,-0.11283690482378006
1758447242582702000,1.1487021484375,-0.09401202201843262,0.06164311245083809,-0.11250800639390945
1758447242592675300,1.15867529296875,-0.0964917242527008,0.054198067635297775,-0.11127986013889313
1758447242602647300,1.168647216796875,-0.10604901611804962,0.06418811529874802,-0.11124417930841446
1758447242612619300,1.178619384765625,-0.1183520182967186,0.08956696838140488,-0.11236830800771713
1758447242622592000,1.188592041015625,-0.128139927983284,0.1140933483839035,-0.11634121090173721
1758447242632563700,1.198563720703125,-0.12462517619132996,0.12423934787511826,-0.12656931579113007
1758447242642536000,1.208535888671875,-0.10545334219932556,0.11413370817899704,-0.13892397284507751
1758447242652509000,1.218509033203125,-0.06764668971300125,0.09793289750814438,-0.1437523514032364
1758447242662481000,1.22848095703125,-0.032520659267902374,0.08313930034637451,-0.1306336224079132
1758447242672452900,1.238452880859375,-0.010884072631597519,0.06081027165055275,-0.10087253898382187
1758447242682425000,1.248425048828125,-0.006023005116730928,0.017152542248368263,-0.06546661257743835
1758447242692397800,1.258397705078125,-0.006349737755954266,-0.023635439574718475,-0.027086347341537476
1758447242702370000,1.2683701171875,-0.00014696898870170116,-0.030813459306955338,-0.0019543629605323076
1758447242712342000,1.278342041015625,0.010592570528388023,-0.016491690650582314,0.0028184959664940834
1758447242722314800,1.288314697265625,0.02542371302843094,0.0002390868030488491,-0.0016407009679824114
1758447242732287000,1.298286865234375,0.03866053745150566,0.02128848060965538,-0.009453008882701397
1758447242742259000,1.308259033203125,0.04485558345913887,0.02996985614299774,-0.015718627721071243
1758447242752232000,1.31823193359375,0.04262492060661316,0.04232720658183098,-0.012938537634909153
1758447242762204000,1.328203857421875,0.038875188678503036,0.0474519282579422,-0.001112504629418254
1758447242772176100,1.338176025390625,0.03094775788486004,0.02805427648127079,0.008451979607343674
1758447242782147800,1.34814794921875,0.030021777376532555,-0.004901543725281954,0.02382747270166874
1758447242792120800,1.358120849609375,0.032812122255563736,-0.029605329036712646,0.04060770943760872
1758447242802093000,1.368093017578125,0.03841967508196831,-0.04435764253139496,0.054353613406419754
1758447242812064800,1.378064697265625,0.04397837445139885,-0.04740091785788536,0.06019595265388489
1758447242822038000,1.3880380859375,0.04027178883552551,-0.041291892528533936,0.06865494698286057
1758447242832010000,1.398010009765625,0.02381337620317936,-0.027015581727027893,0.07369024306535721
1758447242841982000,1.40798193359375,-0.0019766748882830143,-0.020945973694324493,0.07249448448419571
1758447242851955000,1.417954833984375,-0.020898129791021347,-0.015762703493237495,0.06435173749923706
1758447242861927000,1.427927001953125,-0.035498909652233124,-0.00991892907768488,0.044400665909051895
1758447242871899000,1.43789892578125,-0.03938659280538559,-0.011146134696900845,0.025243468582630157
1758447242881871000,1.44787109375,-0.03257209435105324,-0.008659008890390396,0.0020369496196508408
1758447242891844000,1.457843994140625,-0.021531278267502785,-0.009351489134132862,-0.01733870431780815
1758447242901815800,1.46781591796875,-0.01759752258658409,-0.003652057610452175,-0.028617190197110176
1758447242911788000,1.4777880859375,-0.01718762330710888,0.016086965799331665,-0.02194291725754738
1758447242921761000,1.487760986328125,-0.022938452661037445,0.030872568488121033,-0.007822837680578232
1758447242931733000,1.49773291015625,-0.023942235857248306,0.054209399968385696,-0.007699641399085522
1758447242941705000,1.507705078125,-0.026354793459177017,0.06760670244693756,-0.019431399181485176
1758447242951677000,1.517677001953125,-0.03760721907019615,0.05728993937373161,-0.04925572872161865
1758447242961650000,1.52764990234375,-0.0447482205927372,0.051341235637664795,-0.08405312150716782
1758447242971622000,1.537621826171875,-0.053442299365997314,0.048336781561374664,-0.11602254211902618
1758447242981593900,1.54759375,-0.05753451585769653,0.03681701049208641,-0.1341589391231537
1758447242991566800,1.55756689453125,-0.0513504259288311,0.037863705307245255,-0.13150015473365784
1758447243001539000,1.5675390625,-0.040362488478422165,0.04355141520500183,-0.11196373403072357
1758447243011510800,1.5775107421875,-0.03073345124721527,0.04149310663342476,-0.08104915171861649
1758447243021483800,1.58748388671875,-0.027677739039063454,0.03385942056775093,-0.04281041771173477
1758447243031456000,1.5974560546875,-0.019778992980718613,0.012402433902025223,-0.00991030689328909
1758447243041428000,1.607427978515625,-0.02398252859711647,-0.017680900171399117,0.00006056809797883034
1758447243051400000,1.61739990234375,-0.035546962171792984,-0.002527937525883317,-0.04115508496761322
1758447243061373000,1.627373046875,-0.034413255751132965,0.057688262313604355,-0.094136543571949
1758447243071345000,1.637344970703125,-0.024846721440553665,0.11737357825040817,-0.14265717566013336
1758447243081316900,1.64731689453125,-0.011407080106437206,0.16171894967556,-0.1667310893535614
1758447243091290000,1.6572900390625,-0.0027093864046037197,0.16742970049381256,-0.15474633872509003
1758447243101261800,1.66726171875,-0.003676646389067173,0.14203964173793793,-0.10644219815731049
1758447243111234000,1.677234130859375,-0.007684666197746992,0.08547907322645187,-0.045473285019397736
1758447243121207000,1.68720703125,-0.020044662058353424,0.01709842123091221,0.011097847484052181
1758447243131178800,1.6971787109375,-0.027406439185142517,-0.03932595252990723,0.05339365452528
1758447243141151000,1.70715087890625,-0.027552912011742592,-0.0731438398361206,0.08515451103448868
1758447243151122700,1.717122802734375,-0.02461867965757847,-0.08925271034240723,0.09852132201194763
1758447243161096000,1.727095947265625,-0.02091049589216709,-0.08195298910140991,0.09258673340082169
1758447243171068000,1.73706787109375,-0.013820131309330463,-0.034316111356019974,0.0691809207201004
1758447243181039900,1.747039794921875,-0.00952924694865942,0.02424999698996544,0.02956320531666279
1758447243191012900,1.757012939453125,0.00024877674877643585,0.07038823515176773,-0.011514328420162201
1758447243200984800,1.76698486328125,0.01820886880159378,0.09893359243869781,-0.03305983543395996
1758447243210956800,1.776956787109375,0.033025745302438736,0.10349671542644501,-0.03794105350971222
1758447243220929000,1.786928955078125,0.03890547156333923,0.08105851709842682,-0.02440580166876316
1758447243230902000,1.796902099609375,0.03823542222380638,0.03106110915541649,0.0037765521556138992
1758447243240873700,1.806873779296875,0.027360670268535614,-0.035099003463983536,0.03574860095977783
1758447243250846000,1.816845947265625,0.008406838402152061,-0.08823468536138535,0.06829209625720978
1758447243260819000,1.82681884765625,-0.007391299586743116,-0.12206881493330002,0.09258225560188293
1758447243270791000,1.836791015625,-0.015259875915944576,-0.14226996898651123,0.10139170289039612
1758447243280763000,1.846762939453125,-0.01389660220593214,-0.14024996757507324,0.09107222408056259
1758447243290735900,1.85673583984375,-0.004366025328636169,-0.10803194344043732,0.06554082036018372
1758447243300707800,1.866707763671875,0.006558528169989586,-0.05160914734005928,0.030027298256754875
1758447243310679800,1.8766796875,0.013716230168938637,-0.0013412842527031898,-0.010440184734761715
1758447243320652000,1.886652099609375,0.023866336792707443,0.040661826729774475,-0.042671360075473785
1758447243330624800,1.896624755859375,0.02453935518860817,0.07112747430801392,-0.06420452892780304
1758447243340597000,1.906596923828125,0.013584974221885204,0.08708140254020691,-0.07324117422103882
1758447243350569000,1.91656884765625,-0.0074812378734350204,0.09481167793273926,-0.06164384260773659
1758447243360541700,1.926541748046875,-0.028986265882849693,0.07134150713682175,-0.04517512023448944
1758447243370514000,1.936513916015625,-0.044347263872623444,0.03204367682337761,-0.018776986747980118
1758447243380486000,1.94648583984375,-0.047594986855983734,-0.006725819781422615,0.013302654027938843
1758447243390459000,1.956458984375,-0.0429401621222496,-0.03713329881429672,0.038168780505657196
1758447243400430800,1.966430908203125,-0.0324435792863369,-0.058389052748680115,0.056685738265514374
1758447243410403000,1.976403076171875,-0.02566438913345337,-0.07361431419849396,0.06630248576402664
1758447243420374800,1.986374755859375,-0.03246450424194336,-0.07086034119129181,0.07697323709726334
1758447243430348000,1.99634814453125,-0.04283135384321213,-0.04671832546591759,0.07006964087486267
1758447243440320000,2.006320068359375,-0.04488997906446457,-0.02302791178226471,0.05017582327127457
1758447243450292000,2.0162919921875,-0.032363951206207275,-0.0038171415217220783,0.02076076902449131
1758447243460265000,2.026264892578125,-0.012937522493302822,0.009153252467513084,-0.007967282086610794
1758447243470237000,2.03623681640625,0.007299609947949648,0.02084018476307392,-0.02133411169052124
1758447243480209000,2.046208984375,0.017625218257308006,0.021939802914857864,-0.01338537409901619
1758447243490180900,2.056180908203125,0.015130482614040375,0.009744948707520962,0.005801169667392969
1758447243500154000,2.066154052734375,0.013798369094729424,-0.010719314217567444,0.029772814363241196
1758447243510125800,2.076125732421875,0.020653992891311646,-0.02867964655160904,0.051654744893312454
1758447243520098000,2.08609814453125,0.04031318053603172,-0.05204595625400543,0.06766407191753387
1758447243530071000,2.096071044921875,0.06420420855283737,-0.08763899654150009,0.08066771179437637
1758447243540042800,2.106042724609375,0.06256929785013199,-0.13825289905071259,0.0930522084236145
1758447243550015000,2.116014892578125,0.029786504805088043,-0.16702258586883545,0.11078332364559174
1758447243559988000,2.125988037109375,-0.010855463333427906,-0.1635519564151764,0.13292831182479858
1758447243569960000,2.1359599609375,-0.037490423768758774,-0.15536776185035706,0.15702253580093384
1758447243579932000,2.145931884765625,-0.031712163239717484,-0.13901276886463165,0.1784956008195877
1758447243589904000,2.15590380859375,-0.0042747920379042625,-0.09333745390176773,0.17897889018058777
1758447243599876900,2.165876953125,0.029241088777780533,-0.04249824583530426,0.15300454199314117
1758447243609849000,2.17584912109375,0.05034603178501129,-0.005406114272773266,0.11377568542957306
1758447243619820800,2.18582080078125,0.049043215811252594,0.020395122468471527,0.08435282111167908
1758447243629793800,2.195793701171875,0.037907205522060394,0.021529873833060265,0.06927238404750824
1758447243639766000,2.20576611328125,0.015092171728610992,0.0007612125482410192,0.05514458194375038
1758447243649737700,2.21573779296875,-0.00032429746352136135,-0.009840904735028744,0.0382101908326149
1758447243659710000,2.2257099609375,-0.009990773163735867,-0.0021555544808506966,0.018871914595365524
1758447243669683000,2.235682861328125,-0.009133159182965755,0.004640431143343449,0.0008516102097928524
1758447243679655000,2.245655029296875,-0.001755403820425272,0.006095316261053085,-0.013291639275848866
1758447243689627000,2.255626953125,0.00616114679723978,-0.006348909344524145,-0.020838655531406403
1758447243699600000,2.265599853515625,0.004441809840500355,-0.031044935807585716,-0.027368726208806038
1758447243709571800,2.27557177734375,-0.008431149646639824,-0.026560630649328232,-0.05334984138607979
1758447243719543800,2.285543701171875,-0.018202820792794228,0.026120688766241074,-0.0878569483757019
1758447243729517000,2.29551708984375,-0.030399300158023834,0.08799152076244354,-0.12207350879907608
1758447243739488800,2.30548876953125,-0.027681542560458183,0.14121505618095398,-0.13794806599617004
1758447243749461000,2.3154609375,-0.02166622318327427,0.17702755331993103,-0.14367112517356873
1758447243759433000,2.325432861328125,-0.01301148347556591,0.1804979145526886,-0.14340533316135406
1758447243769406000,2.335406005859375,-0.007611124776303768,0.14908991754055023,-0.12943041324615479
1758447243779378000,2.3453779296875,-0.0026224914472550154,0.09185485541820526,-0.09863254427909851
1758447243789350100,2.35535009765625,0.0008707393426448107,0.01009724847972393,-0.04892606660723686
1758447243799323000,2.365322998046875,0.0033394896890968084,-0.08444124460220337,0.012775648385286331
1758447243809294800,2.375294921875,0.0019045403460040689,-0.1642899066209793,0.07647223770618439
1758447243819267000,2.38526708984375,-0.003811934730038047,-0.19652880728244781,0.1327725201845169
1758447243829238800,2.39523876953125,0.003099804976955056,-0.1578131765127182,0.14922964572906494
1758447243839212000,2.4052119140625,0.021387998014688492,-0.08147552609443665,0.11233767867088318
1758447243849184000,2.41518408203125,0.04499733820557594,-0.00016342580784112215,0.03796027973294258
1758447243859156000,2.425156005859375,0.06093662232160568,0.052786342799663544,-0.05150195583701134
1758447243869129000,2.43512890625,0.06480284780263901,0.07179015874862671,-0.12470819801092148
1758447243879101000,2.445100830078125,0.06524200737476349,0.05879632383584976,-0.15960226953029633
1758447243889073000,2.455072998046875,0.06021586060523987,0.02341776341199875,-0.15665721893310547
1758447243899046000,2.4650458984375,0.045399099588394165,-0.021507367491722107,-0.1161891520023346
1758447243909018000,2.47501806640625,0.02551395818591118,-0.057714443653821945,-0.05035591498017311
1758447243918989800,2.48498974609375,0.014138265512883663,-0.08204534649848938,0.015258515253663063
1758447243928962000,2.494962158203125,0.007838633842766285,-0.10220612585544586,0.05873115733265877
1758447243938935000,2.50493505859375,0.006493471562862396,-0.10744749009609222,0.07873308658599854
1758447243948907000,2.514906982421875,0.008483042009174824,-0.09091630578041077,0.08590315282344818
1758447243958879000,2.52487890625,0.0043511479161679745,-0.0770241916179657,0.07616184651851654
1758447243968852000,2.53485205078125,-0.0026476390194147825,-0.06292250752449036,0.056702639907598495
1758447243978824000,2.544823974609375,-0.008183285593986511,-0.03688904643058777,0.046047329902648926
1758447243988796000,2.5547958984375,-0.010942586697638035,-0.010619879700243473,0.0334085114300251
1758447243998767900,2.564767822265625,-0.005099344998598099,0.015502002090215683,0.020865023136138916
1758447244008740900,2.574740966796875,0.005454648286104202,0.037510596215724945,0.010656786151230335
1758447244018713000,2.584713134765625,0.01975236088037491,0.04143716022372246,0.010999002493917942
1758447244028684800,2.594684814453125,0.02297927439212799,0.02725270576775074,0.02030050754547119
1758447244038657800,2.60465771484375,0.017871864140033722,0.006573790684342384,0.04021349549293518
1758447244048630000,2.614630126953125,0.009136886335909367,-0.0127083919942379,0.06110817566514015
1758447244058602000,2.62460205078125,-0.002171427709981799,-0.038801513612270355,0.07410254329442978
1758447244068574000,2.634573974609375,-0.007681317627429962,-0.0645701140165329,0.08286064118146896
1758447244078547000,2.644546875,-0.004309755750000477,-0.07914373278617859,0.09357773512601852
1758447244088519000,2.654518798828125,-0.0016443501226603985,-0.08115381747484207,0.10150499641895294
1758447244098491000,2.664490966796875,0.005600779317319393,-0.06766384094953537,0.10634583234786987
1758447244108464000,2.674464111328125,0.021059401333332062,-0.02976156771183014,0.09609115123748779
1758447244118435800,2.684435791015625,0.034991197288036346,0.00831764005124569,0.07581144571304321
1758447244128408000,2.694407958984375,0.044100500643253326,0.030221957713365555,0.04031113535165787
1758447244138381000,2.704381103515625,0.046137817203998566,0.04752558097243309,0.0019288589246571064
1758447244148352800,2.714352783203125,0.043142978101968765,0.059609074145555496,-0.026588372886180878
1758447244158325000,2.724324951171875,0.030817603692412376,0.05678905174136162,-0.035418082028627396
1758447244168296700,2.734296630859375,0.01878228597342968,0.023530900478363037,-0.0372408889234066
1758447244178270000,2.74427001953125,0.012208006344735622,-0.020127631723880768,-0.027936071157455444
1758447244188242000,2.754241943359375,0.013264177367091179,-0.046399906277656555,-0.0050977179780602455
1758447244198214000,2.7642138671875,0.02200493961572647,-0.05950772017240524,0.023834863677620888
1758447244208187000,2.774186767578125,0.032218389213085175,-0.06466192752122879,0.0552094466984272
1758447244218158800,2.784158935546875,0.045953378081321716,-0.06739779561758041,0.0848965048789978
1758447244228130800,2.794130859375,0.06370148062705994,-0.06978747248649597,0.1088247150182724
1758447244238103000,2.80410302734375,0.07677813619375229,-0.08560238778591156,0.1260867863893509
1758447244248076000,2.814075927734375,0.08487361669540405,-0.11146671324968338,0.13984443247318268
1758447244258047700,2.8240478515625,0.08927582204341888,-0.13498829305171967,0.15176129341125488
1758447244268020000,2.83402001953125,0.09471125900745392,-0.15168535709381104,0.17055313289165497
1758447244277993000,2.843992919921875,0.10843532532453537,-0.16893118619918823,0.19686755537986755
1758447244287965000,2.85396484375,0.13861295580863953,-0.18582795560359955,0.23553596436977386
1758447244297937000,2.86393701171875,0.18649126589298248,-0.20625919103622437,0.2915955185890198
1758447244307910000,2.873909912109375,0.2424004226922989,-0.2576623260974884,0.36145150661468506
1758447244317881900,2.8838818359375,0.29296398162841797,-0.3346990644931793,0.4438960552215576
1758447244327853800,2.893853759765625,0.3325633406639099,-0.430588036775589,0.5276466012001038
1758447244337826000,2.903825927734375,0.3561866283416748,-0.5093265175819397,0.5996028184890747
1758447244347798800,2.913798828125,0.37632644176483154,-0.5637722015380859,0.6529256701469421
1758447244357771000,2.92377099609375,0.38674843311309814,-0.5917652249336243,0.6910780668258667
1758447244367743000,2.933742919921875,0.3878651559352875,-0.6242572665214539,0.7136418223381042
1758447244377715700,2.9437158203125,0.3943438231945038,-0.6425324082374573,0.7358685731887817
1758447244387688000,2.95368798828125,0.41979214549064636,-0.6283610463142395,0.763008177280426
1758447244397660000,2.963659912109375,0.45712965726852417,-0.6047883629798889,0.7994540929794312
1758447244407632000,2.9736318359375,0.5142263174057007,-0.5828105807304382,0.829805850982666
1758447244417604900,2.98360498046875,0.5724760293960571,-0.5730205178260803,0.8524408340454102
1758447244427577000,2.9935771484375,0.6181089282035828,-0.5841770768165588,0.8766226172447205
1758447244437548800,3.003548828125,0.6441927552223206,-0.6016224026679993,0.8956788778305054
1758447244447522000,3.01352197265625,0.639180064201355,-0.623788058757782,0.899718701839447
1758447244457494000,3.023493896484375,0.6099316477775574,-0.635529100894928,0.8993415832519531
1758447244467466000,3.033466064453125,0.5695652961730957,-0.6275726556777954,0.8913488984107971
1758447244477438000,3.04343798828125,0.5453648567199707,-0.583364725112915,0.8673508763313293
1758447244487411000,3.053410888671875,0.5360004901885986,-0.5213347673416138,0.831743061542511
1758447244497383000,3.0633828125,0.5328912734985352,-0.4643060863018036,0.7876661419868469
1758447244507355000,3.07335498046875,0.5301975607872009,-0.4122953414916992,0.7287507057189941
1758447244517328100,3.083328125,0.5224310159683228,-0.34883272647857666,0.6535432934761047
1758447244527299800,3.0932998046875,0.4948744773864746,-0.2741105556488037,0.5724500417709351
1758447244537272000,3.10327197265625,0.45267775654792786,-0.19871008396148682,0.49805301427841187
1758447244547243800,3.113243896484375,0.4038775861263275,-0.13335339725017548,0.4414907693862915
1758447244557216800,3.123216796875,0.3473506569862366,-0.11127500236034393,0.39666125178337097
1758447244567189000,3.13318896484375,0.2973509728908539,-0.1262267529964447,0.36404985189437866
1758447244577161000,3.143160888671875,0.25497955083847046,-0.1548682451248169,0.33660757541656494
1758447244587134000,3.153134033203125,0.23125649988651276,-0.1827712208032608,0.3185916244983673
1758447244597106000,3.16310595703125,0.22067630290985107,-0.1997203677892685,0.30679863691329956
1758447244607078000,3.173077880859375,0.20739483833312988,-0.22256551682949066,0.3040590286254883
1758447244617051000,3.18305078125,0.19534164667129517,-0.25736474990844727,0.31248581409454346
1758447244627022800,3.19302294921875,0.1782868355512619,-0.2925593852996826,0.31496462225914
1758447244636994800,3.202994873046875,0.16753751039505005,-0.3125980794429779,0.30480465292930603
1758447244646966800,3.212966796875,0.15358053147792816,-0.31426358222961426,0.28153669834136963
1758447244656939800,3.222939697265625,0.14015740156173706,-0.3045869767665863,0.2446167767047882
1758447244666911700,3.232911865234375,0.11874308437108994,-0.28142762184143066,0.20677237212657928
1758447244676883700,3.2428837890625,0.09163503348827362,-0.2529198229312897,0.17375609278678894
1758447244686856700,3.252856689453125,0.06538322567939758,-0.2230653315782547,0.14001238346099854
1758447244696829000,3.262828857421875,0.038819264620542526,-0.1892320066690445,0.10788559913635254
1758447244706800600,3.272800537109375,0.021683190017938614,-0.14681778848171234,0.08021839708089828
1758447244716772900,3.28277294921875,0.017348628491163254,-0.1004236489534378,0.0715375542640686
1758447244726745900,3.292745849609375,0.01223791018128395,-0.07427281141281128,0.09146695584058762
1758447244736717800,3.3027177734375,0.0023495927453041077,-0.07302644848823547,0.1313914656639099
1758447244746689800,3.312689697265625,0.004636030178517103,-0.09029857814311981,0.14201438426971436
1758447244756662800,3.322662841796875,0.09093816578388214,-0.06773947924375534,-0.04436295107007027
1758447244766634800,3.332634765625,0.1376323252916336,0.15962332487106323,-0.19326169788837433
1758447244776606700,3.342606689453125,0.1974559724330902,0.2904902696609497,-0.3421902060508728
1758447244786579000,3.352578857421875,0.2339959442615509,0.3883325159549713,-0.4336450397968292
1758447244796551700,3.3625517578125,0.21201075613498688,0.4333471357822418,-0.46227002143859863
1758447244806524000,3.37252392578125,0.13187752664089203,0.40180715918540955,-0.47040820121765137
1758447244816495900,3.382495849609375,0.04228346422314644,0.32124438881874084,-0.46331143379211426
1758447244826468600,3.392468505859375,-0.04896998032927513,0.21750114858150482,-0.4696024954319
1758447244836440800,3.40244091796875,-0.12147773802280426,0.14104418456554413,-0.48017898201942444
1758447244846412800,3.412412841796875,-0.1657429039478302,0.10072384774684906,-0.42214539647102356
1758447244856384800,3.422384765625,-0.13626542687416077,0.008550244383513927,-0.352099746465683
1758447244866357800,3.432357666015625,-0.0860740914940834,-0.08871016651391983,-0.32852092385292053
1758447244876330000,3.442330078125,-0.0404307022690773,-0.10998642444610596,-0.33775490522384644
1758447244886301700,3.4523017578125,-0.008718923665583134,-0.10440107434988022,-0.3792724907398224
1758447244896274700,3.462274658203125,0.006727410480380058,-0.0915108397603035,-0.43195247650146484
1758447244906247000,3.472246826171875,0.03512796759605408,-0.07193759083747864,-0.4746539294719696
1758447244916219000,3.482218994140625,0.058521442115306854,-0.06845017522573471,-0.49703672528266907
1758447244926190800,3.49219091796875,0.01261524111032486,-0.06323734670877457,-0.49694204330444336
1758447244936163800,3.502163818359375,-0.09554371982812881,-0.04333900660276413,-0.4690414369106293
1758447244946135800,3.5121357421875,-0.18299610912799835,-0.026489412412047386,-0.4217292070388794
1758447244956107800,3.522107666015625,-0.2598208487033844,-0.036951642483472824,-0.4077473282814026
1758447244966081000,3.5320810546875,-0.305793821811676,-0.009767109528183937,-0.4350217580795288
1758447244976052700,3.542052734375,-0.34964117407798767,0.05104697495698929,-0.4759412109851837
1758447244986025000,3.55202490234375,-0.3824828863143921,0.1387616991996765,-0.42255061864852905
1758447244995996700,3.56199658203125,-0.4252444803714752,0.20359449088573456,-0.32917726039886475
1758447245005969700,3.5719697265625,-0.4439959228038788,0.35626474022865295,-0.24496245384216309
1758447245015942000,3.58194189453125,-0.4164372682571411,0.49688735604286194,-0.22613124549388885
1758447245025913600,3.59191357421875,-0.30595913529396057,0.5108498334884644,-0.2244189977645874
1758447245035886800,3.601886962890625,-0.2783069908618927,0.41660457849502563,-0.1587129533290863
1758447245045858800,3.61185888671875,-0.25475382804870605,0.5240877866744995,-0.18103595077991486
1758447245055830800,3.621830810546875,-0.33513814210891724,0.4736086428165436,-0.2616935074329376
1758447245065803800,3.6318037109375,-0.351252019405365,0.43679079413414,-0.28694841265678406
1758447245075775700,3.641775634765625,-0.3152245283126831,0.3695448935031891,-0.30122509598731995
1758447245085747700,3.651747802734375,-0.29035764932632446,0.28612589836120605,-0.30894941091537476
1758447245095720000,3.661719970703125,-0.2625867426395416,0.23302911221981049,-0.26893219351768494
1758447245105693000,3.67169287109375,-0.2395724207162857,0.18761326372623444,-0.19899499416351318
1758447245115664600,3.68166455078125,-0.2308252602815628,0.13811175525188446,-0.11646842211484909
1758447245125636900,3.691636962890625,-0.2267027646303177,0.09204963594675064,-0.028418926522135735
1758447245135609900,3.70160986328125,-0.21560217440128326,0.045991599559783936,0.04259692505002022
1758447245145581800,3.711581787109375,-0.20097385346889496,0.0029874213505536318,0.08010627329349518
1758447245155553800,3.7215537109375,-0.1823626160621643,-0.02464394085109234,0.0922902375459671
1758447245165526000,3.731526123046875,-0.16153715550899506,-0.04815131053328514,0.09525267034769058
1758447245175498800,3.741498779296875,-0.13938072323799133,-0.07120922207832336,0.09461404383182526
1758447245185470700,3.751470703125,-0.11208373308181763,-0.08778947591781616,0.0956658273935318
1758447245195443000,3.76144287109375,-0.08364996314048767,-0.09682078659534454,0.09850741922855377
1758447245205415700,3.771415771484375,-0.046028021723032,-0.08279925584793091,0.09145721793174744
1758447245215388000,3.781387939453125,-0.01499340683221817,-0.0405639186501503,0.06887148320674896
1758447245225360000,3.79135986328125,0.012547065503895283,0.01028529554605484,0.04101591557264328
1758447245235331800,3.801331787109375,0.021912071853876114,0.04066823422908783,0.015726272016763687
1758447245245304800,3.811304931640625,0.012729604728519917,0.04420445114374161,0.01029832474887371
1758447245255276800,3.82127685546875,-0.008324014954268932,0.04399885609745979,0.021708106622099876
1758447245265248800,3.831248779296875,-0.027194147929549217,0.03596097230911255,0.03750745952129364
1758447245275221800,3.8412216796875,-0.03552797809243202,0.01816067285835743,0.05283394828438759
1758447245285194000,3.851194091796875,-0.029940476641058922,-0.008296333253383636,0.06084052845835686
1758447245295165700,3.861165771484375,-0.016172731295228004,-0.04281463101506233,0.05380365625023842
1758447245305138000,3.871137939453125,-0.0033914975356310606,-0.07641588896512985,0.033938609063625336
1758447245315110700,3.881110595703125,0.019562022760510445,-0.10034359246492386,0.008903829380869865
1758447245325083000,3.891082763671875,0.04385008662939072,-0.11974187195301056,-0.008501419797539711
1758447245335054800,3.901054931640625,0.06191936880350113,-0.14056725800037384,0.006297765765339136
1758447245345027600,3.911027587890625,0.05764758214354515,-0.13498029112815857,0.031410641968250275
1758447245354999800,3.920999755859375,0.04478637874126434,-0.08097671717405319,0.040728241205215454
1758447245364971800,3.9309716796875,0.03739865496754646,-0.012293056584894657,0.010275698266923428
1758447245374943700,3.94094384765625,0.0458800233900547,0.040756311267614365,-0.052407391369342804
1758447245384916700,3.950916748046875,0.06144342198967934,0.09016165137290955,-0.11443061381578445
1758447245394889000,3.960888916015625,0.0581781230866909,0.11595916002988815,-0.16364583373069763
1758447245404860700,3.970860595703125,0.039971306920051575,0.11552104353904724,-0.19965608417987823
1758447245414833700,3.980833740234375,0.022477002814412117,0.09245727211236954,-0.2075672745704651
1758447245424806000,3.990805908203125,0.013839914463460445,0.05329294502735138,-0.19119206070899963
1758447245434777900,4.00077783203125,0.006984139792621136,0.008910036645829678,-0.15653714537620544
1758447245444749800,4.010749755859375,0.009940818883478642,-0.03665061667561531,-0.10705552250146866
1758447245454722800,4.020722900390625,0.014703083783388138,-0.07312607765197754,-0.0508098229765892
1758447245464694800,4.03069482421875,0.015369445085525513,-0.08959619700908661,-0.013295087963342667
1758447245474666800,4.040666748046875,0.008941639214754105,-0.05255482345819473,-0.013363797217607498
1758447245484640000,4.050639892578125,0.0035309710074216127,0.021103793755173683,-0.05087153613567352
1758447245494611700,4.06061181640625,-0.00416503194719553,0.09217344224452972,-0.10174883157014847
1758447245504584000,4.070583984375,-0.015228601172566414,0.15502168238162994,-0.14557111263275146
1758447245514555600,4.0805556640625,-0.024907061830163002,0.18222586810588837,-0.16402442753314972
1758447245524528600,4.090528564453125,-0.027541689574718475,0.16602523624897003,-0.1593712568283081
1758447245534500900,4.1005009765625,-0.019486693665385246,0.12007798254489899,-0.1294567584991455
1758447245544472600,4.11047265625,-0.01049521192908287,0.05995924025774002,-0.0901937484741211
1758447245554445800,4.12044580078125,-0.01049121841788292,-0.0052610402926802635,-0.04749848693609238
1758447245564417800,4.130417724609375,-0.01479165256023407,-0.03387993946671486,-0.003194250399246812
1758447245574389800,4.1403896484375,-0.01942874863743782,-0.03303917869925499,0.02693329006433487
1758447245584361700,4.15036181640625,-0.01817801594734192,-0.029174895957112312,0.02887401171028614
1758447245594334700,4.160334716796875,-0.006362901069223881,-0.018474048003554344,0.019205672666430473
1758447245604306700,4.170306640625,0.0029427926056087017,-0.0006770881591364741,0.006551897153258324
1758447245614279000,4.18027880859375,0.01209501177072525,0.01277480460703373,-0.004132172558456659
1758447245624252000,4.190251953125,0.011632269248366356,0.01992007903754711,-0.01621088758111
1758447245634223600,4.2002236328125,0.0006946667563170195,0.04242751747369766,-0.03875747695565224
1758447245644195800,4.21019580078125,-0.012035053223371506,0.08435779809951782,-0.059066444635391235
1758447245654167800,4.220167724609375,-0.0205497108399868,0.12331265956163406,-0.0755293071269989
1758447245664140800,4.230140869140625,-0.01698625087738037,0.14936235547065735,-0.08573032915592194
1758447245674112800,4.24011279296875,-0.0016496384050697088,0.164554625749588,-0.07929480075836182
1758447245684085000,4.2500849609375,0.019004926085472107,0.15058736503124237,-0.055696628987789154
1758447245694057700,4.2600576171875,0.039745625108480453,0.11595693230628967,-0.013821350410580635
1758447245704029700,4.27002978515625,0.0628831684589386,0.054390523582696915,0.036270324140787125
1758447245714002000,4.280001953125,0.08842714875936508,-0.019799286499619484,0.0892358049750328
1758447245723973600,4.2899736328125,0.11516706645488739,-0.07888269424438477,0.1318642497062683
1758447245733947000,4.29994677734375,0.14848800003528595,-0.10558994114398956,0.16023464500904083
1758447245743918800,4.3099189453125,0.21131137013435364,-0.12718212604522705,0.19331838190555573
1758447245753890800,4.319890869140625,0.33812975883483887,-0.18772323429584503,0.2492455691099167
1758447245763863800,4.32986376953125,0.5081480145454407,-0.3034050464630127,0.3437008261680603
1758447245773835800,4.339835693359375,0.6516900062561035,-0.5017378330230713,0.4875195026397705
1758447245783807700,4.349807861328125,0.7600818872451782,-0.7806914448738098,0.6537772417068481
1758447245793780000,4.359780029296875,0.9000933170318604,-1.073513388633728,0.8221249580383301
1758447245803753000,4.3697529296875,1.1120723485946655,-1.2992675304412842,0.977742075920105
1758447245813724700,4.379724609375,1.4264174699783325,-1.4822282791137695,1.1177319288253784
1758447245823697000,4.38969677734375,1.7027724981307983,-1.7393110990524292,1.2485917806625366
1758447245833670000,4.399669921875,1.9561256170272827,-2.095081329345703,1.3997418880462646
1758447245843641900,4.409641845703125,2.199932336807251,-2.513561248779297,1.601181149482727
1758447245853613800,4.41961376953125,2.4231882095336914,-3.0041158199310303,1.840705156326294
1758447245863585800,4.429585693359375,2.6162269115448,-3.467238426208496,2.0926852226257324
1758447245873558800,4.439558837890625,2.8142037391662598,-3.866255044937134,2.3274035453796387
1758447245883530800,4.44953076171875,2.998720169067383,-4.16179895401001,2.5348806381225586
1758447245893502700,4.459502685546875,3.1277782917022705,-4.318606376647949,2.689685821533203
1758447245903475700,4.469475830078125,3.2207982540130615,-4.358391761779785,2.8026788234710693
1758447245913448000,4.479447998046875,3.275836944580078,-4.301288604736328,2.873326301574707
1758447245923419600,4.489419677734375,3.2981021404266357,-4.112447738647461,2.9138295650482178
1758447245933392000,4.499391845703125,3.35913348197937,-3.955160617828369,2.964221477508545
1758447245943364900,4.50936474609375,3.4357359409332275,-3.7873172760009766,3.0489773750305176
1758447245953336800,4.5193369140625,3.4797167778015137,-3.6617398262023926,3.1458933353424072
1758447245963308800,4.529308837890625,3.502915382385254,-3.5746912956237793,3.2473998069763184
1758447245973281800,4.53928173828125,3.4100935459136963,-3.546095609664917,3.3354928493499756
1758447245983253800,4.549253662109375,3.2051119804382324,-3.5264899730682373,3.371250629425049
1758447245993225700,4.559225830078125,2.8949806690216064,-3.483457326889038,3.3673605918884277
1758447246003198000,4.569197998046875,2.6013739109039307,-3.2731070518493652,3.3399081230163574
1758447246013170700,4.579170654296875,2.3849575519561768,-2.9803473949432373,3.274373769760132
1758447246023143000,4.589142822265625,2.2293121814727783,-2.697334051132202,3.1672003269195557
1758447246033115000,4.599114990234375,2.087430000305176,-2.4288954734802246,3.054332971572876
1758447246043087600,4.609087646484375,1.9124037027359009,-2.216524362564087,2.980775833129883
1758447246053059800,4.619059814453125,1.711724042892456,-2.0458149909973145,2.933394193649292
1758447246063031800,4.62903173828125,1.4861793518066406,-1.991040587425232,2.7611024379730225
1758447246073003800,4.639003662109375,0.9585747122764587,-0.7438976764678955,1.2692281007766724
1758447246082976800,4.648976806640625,1.171525478363037,-0.09918588399887085,0.37741005420684814
1758447246092949000,4.658948974609375,1.3696463108062744,-0.685024082660675,0.4074592888355255
1758447246102920700,4.668920654296875,1.05475652217865,-1.7463806867599487,0.9332062005996704
1758447246112893700,4.678893798828125,0.42123091220855713,-2.5009958744049072,1.3998972177505493
1758447246122866000,4.688865966796875,0.021881597116589546,-2.8815066814422607,1.696889042854309
1758447246132838000,4.698837890625,-0.006913299672305584,-2.9464361667633057,1.6699473857879639
1758447246142809900,4.708809814453125,0.18908534944057465,-2.8115198612213135,1.3801331520080566
1758447246152782800,4.718782958984375,0.45809924602508545,-2.386704683303833,1.1340171098709106
1758447246162754800,4.7287548828125,0.6145617961883545,-1.9108335971832275,1.1136014461517334
1758447246172726800,4.738726806640625,0.6737945079803467,-1.5898715257644653,1.2632598876953125
1758447246182700000,4.748699951171875,0.596713125705719,-1.424928069114685,1.4134477376937866
1758447246192671700,4.758671630859375,0.35815754532814026,-1.3574227094650269,1.406916856765747
1758447246202644000,4.76864404296875,0.10742545127868652,-1.506617546081543,0.9703408479690552
1758447246212615700,4.77861572265625,-0.03430318832397461,-1.4804410934448242,0.4958699643611908
1758447246222588700,4.788588623046875,-0.05567958205938339,-1.379449486732483,0.11496841907501221
1758447246232561000,4.798560791015625,-0.04669221118092537,-1.321511149406433,-0.1575981229543686
1758447246242532600,4.80853271484375,-0.010896437801420689,-1.272872805595398,-0.2842531204223633
1758447246252505900,4.818505859375,0.07460514456033707,-1.1499227285385132,-0.36610671877861023
1758447246262477800,4.828477783203125,0.23981860280036926,-0.7688134908676147,-0.5027252435684204
1758447246272449800,4.83844970703125,0.4310216009616852,-0.1232864111661911,-0.7153768539428711
1758447246282421800,4.848421875,0.5834341049194336,0.5673730969429016,-0.9331510066986084
1758447246292394800,4.858394775390625,0.7117452025413513,1.0549228191375732,-1.048376202583313
1758447246302366700,4.86836669921875,0.7563660144805908,1.2244714498519897,-1.0040453672409058
1758447246312339000,4.8783388671875,0.6652814149856567,1.071607232093811,-0.7126750349998474
1758447246322312000,4.88831201171875,0.59513258934021,0.5082774758338928,-0.21586494147777557
1758447246332283600,4.89828369140625,0.6474943161010742,-0.26281872391700745,0.21865881979465485
1758447246342255900,4.908255859375,0.7584279775619507,-0.9359450340270996,0.4506817162036896
1758447246352227600,4.9182275390625,0.9856696724891663,-1.3356311321258545,0.58414626121521
1758447246362200800,4.928200927734375,1.165587067604065,-1.4041389226913452,0.6548867225646973
1758447246372172800,4.9381728515625,1.1055775880813599,-1.4231030941009521,0.7587484121322632
1758447246382144800,4.948144775390625,0.7735132575035095,-1.8505017757415771,1.1098121404647827
1758447246392116700,4.95811669921875,0.18572698533535004,-2.5658376216888428,1.5168832540512085
1758447246402089700,4.96808984375,-0.33084049820899963,-3.322664260864258,1.5640534162521362
1758447246412061700,4.978061767578125,-0.7171847820281982,-3.4137630462646484,1.294560194015503
1758447246422033700,4.98803369140625,-1.8123986721038818,-2.229414463043213,0.9723652005195618
1758447246432007000,4.9980068359375,-2.756667375564575,-1.0846257209777832,0.5473430752754211
1758447246441978600,5.007978515625,-3.131164312362671,0.12322711199522018,0.417282372713089
1758447246451950800,5.017950927734375,-3.3734066486358643,1.5030689239501953,0.18634290993213654
1758447246461922800,5.0279228515625,-2.785217761993408,2.405822992324829,-0.5729158520698547
1758447246471895800,5.037895751953125,-1.4266314506530762,2.353234052658081,-0.7832744121551514
1758447246481867800,5.04786767578125,-0.5287532806396484,1.3297489881515503,-0.3815265893936157
1758447246491840000,5.057840087890625,-0.3132071793079376,0.19571854174137115,0.2147812694311142
1758447246501812700,5.067812744140625,-0.21413615345954895,-0.18931835889816284,0.5392470359802246
1758447246511784700,5.07778466796875,-0.2660160958766937,-0.5366172194480896,0.5077493190765381
1758447246521757000,5.0877568359375,-0.4114924669265747,-0.6843851208686829,0.3901413679122925
1758447246531728600,5.097728759765625,-0.2869976758956909,-0.3594387173652649,0.21818320453166962
1758447246541702000,5.107701904296875,0.22053366899490356,0.24640917778015137,-0.23352102935314178
1758447246551673900,5.117673828125,0.798066258430481,0.7661487460136414,-0.928931474685669
1758447246561645800,5.127645751953125,1.4655786752700806,1.085065245628357,-1.4994351863861084
1758447246571618800,5.137618896484375,2.1417384147644043,1.0092008113861084,-1.7028287649154663
1758447246581590800,5.1475908203125,2.617668867111206,0.48285695910453796,-1.522164225578308
1758447246591562800,5.157562744140625,2.7111706733703613,-0.6997542977333069,-0.8986639976501465
1758447246601534700,5.16753466796875,3.105381965637207,-1.7814468145370483,-0.669529378414154
1758447246611508000,5.177508056640625,3.723144054412842,-1.6443403959274292,-0.9553995132446289
1758447246621480000,5.18747998046875,4.484678745269775,-0.9563418626785278,-1.3586688041687012
1758447246631452200,5.1974521484375,5.391278266906738,-0.25351637601852417,-1.741684079170227
1758447246641425200,5.207425048828125,6.3478827476501465,-0.014627136290073395,-1.9595006704330444
1758447246651396900,5.21739697265625,7.080444812774658,-0.46937546133995056,-2.0923714637756348
1758447246661369000,5.227369140625,7.3892035484313965,-1.2822216749191284,-2.302135705947876
1758447246671341000,5.237341064453125,7.610319137573242,-1.4603853225708008,-2.4872372150421143
1758447246681314000,5.24731396484375,7.768499374389648,-1.016257882118225,-2.610827922821045
1758447246691286000,5.2572861328125,7.733496189117432,0.40423256158828735,-2.6519834995269775
1758447246701258200,5.26725830078125,7.2203145027160645,2.686445474624634,-2.371800184249878
1758447246711231000,5.27723095703125,6.117953777313232,4.39846134185791,-1.6590334177017212
1758447246721203200,5.287203125,4.760422229766846,4.378678798675537,-0.45414265990257263
1758447246731175200,5.297175048828125,3.6811327934265137,3.5477795600891113,0.46511900424957275
1758447246741147100,5.307147216796875,2.8730194568634033,2.6193721294403076,0.8952598571777344
1758447246751120100,5.3171201171875,2.402042865753174,2.119354009628296,1.3498986959457397
1758447246761092000,5.327092041015625,2.2981786727905273,1.8756166696548462,1.9771413803100586
1758447246771064000,5.33706396484375,2.4921157360076904,1.6487699747085571,2.597588300704956
1758447246781036000,5.3470361328125,2.725585460662842,1.1451044082641602,2.88049054145813
1758447246791009300,5.35700927734375,2.9556262493133545,0.4128834307193756,2.764030933380127
1758447246800981000,5.36698095703125,3.2531886100769043,-0.3926253616809845,2.358600616455078
1758447246810953200,5.376953125,3.4774985313415527,-1.5052844285964966,1.6841373443603516
1758447246820926200,5.38692626953125,3.477566719055176,-2.2504875659942627,0.7230491638183594
1758447246830898000,5.39689794921875,3.552489757537842,-2.167287826538086,-0.027168061584234238
1758447246840870100,5.4068701171875,3.765099287033081,-1.5399160385131836,-0.3772791922092438
1758447246850842000,5.416842041015625,4.052583694458008,-0.8986979722976685,-0.4496082365512848
1758447246860815000,5.426815185546875,4.42572021484375,-0.8089925646781921,-0.4341677129268646
1758447246870787000,5.436787109375,5.195250511169434,-1.2841854095458984,-0.3619353175163269
1758447246880759000,5.446759033203125,6.236359596252441,-2.2041614055633545,-0.135298952460289
1758447246890732000,5.45673193359375,7.043498516082764,-3.414098024368286,-0.03413504734635353
1758447246900704300,5.466704345703125,6.4708757400512695,-4.540802955627441,-0.24395529925823212
1758447246910676000,5.476676025390625,4.316803932189941,-5.048328876495361,-0.7065064311027527
1758447246920648200,5.486648193359375,0.9009482860565186,-4.3584699630737305,-1.2738368511199951
1758447246930621200,5.49662109375,-0.7779906988143921,-2.1284351348876953,-1.2425843477249146
1758447246940593000,5.506593017578125,-0.5830609202384949,0.22562092542648315,-0.5771902203559875
1758447246950565000,5.516565185546875,-0.1376437246799469,1.6510443687438965,-0.08117198199033737
1758447246960538000,5.5265380859375,-0.02033616416156292,2.1048803329467773,0.07678927481174469
1758447246970510000,5.536510009765625,-0.0805494412779808,2.0424225330352783,0.03423435613512993
1758447246980482000,5.54648193359375,-0.09719488024711609,1.7959681749343872,-0.0738331601023674
1758447246990454300,5.556454345703125,-0.057637616991996765,1.42585027217865,-0.17352619767189026
1758447247000427000,5.566427001953125,0.003384040668606758,0.956928014755249,-0.24528686702251434
1758447247010399000,5.57639892578125,0.0994594395160675,0.4220489263534546,-0.29170387983322144
1758447247020371200,5.58637109375,0.14854857325553894,-0.15994901955127716,-0.2914389967918396
1758447247030344000,5.596343994140625,0.15796232223510742,-0.7285674810409546,-0.2128421813249588
1758447247040316200,5.606316162109375,0.15026746690273285,-1.1631319522857666,-0.051966264843940735
1758447247050288000,5.6162880859375,0.11698326468467712,-1.356796145439148,0.13510029017925262
1758447247060260000,5.626260009765625,0.08351440727710724,-1.2582699060440063,0.28740134835243225
1758447247070233000,5.636233154296875,0.04869464412331581,-0.9446845054626465,0.3557641804218292
1758447247080205300,5.646205322265625,0.025613902136683464,-0.5215597748756409,0.3417564332485199
1758447247090177000,5.656177001953125,0.008221862837672234,-0.10933651775121689,0.25304362177848816
1758447247100149200,5.666149169921875,0.016635511070489883,0.15681837499141693,0.1279752254486084
1758447247110122200,5.676122314453125,0.033487994223833084,0.21847136318683624,0.014200719073414803
1758447247120094000,5.686093994140625,0.05925826355814934,0.11447825282812119,-0.05246882513165474
1758447247130066200,5.696066162109375,0.07515706866979599,-0.04844089597463608,-0.08948223292827606
1758447247140039200,5.7060390625,0.09480933099985123,-0.16889193654060364,-0.11524991691112518
1758447247150011100,5.71601123046875,0.12521223723888397,-0.22214211523532867,-0.14186234772205353
1758447247159983000,5.725983154296875,0.11427110433578491,-0.23218820989131927,-0.18670248985290527
1758447247169955000,5.735955078125,0.0940137729048729,-0.2124864161014557,-0.225574791431427
1758447247179928000,5.745927978515625,0.09514275938272476,-0.1771181970834732,-0.24762289226055145
1758447247189900000,5.755900146484375,0.09585195779800415,-0.14739997684955597,-0.24181000888347626
1758447247199872000,5.7658720703125,0.06980472803115845,-0.11600411683320999,-0.2188868671655655
1758447247209845000,5.775844970703125,0.04210944473743439,-0.06329269707202911,-0.160194531083107
1758447247219817200,5.785817138671875,0.028745174407958984,-0.006673133000731468,-0.07185139507055283
1758447247229789000,5.795788818359375,0.020489372313022614,0.03080340474843979,0.025701798498630524
1758447247239761200,5.80576123046875,0.02079346776008606,0.026317670941352844,0.11642095446586609
1758447247249734100,5.815734130859375,0.01814974844455719,-0.00957242026925087,0.17670533061027527
1758447247259706000,5.8257060546875,0.020627286285161972,-0.05124235525727272,0.20058751106262207
1758447247269678000,5.835677978515625,0.027823681011795998,-0.06711559742689133,0.19438207149505615
1758447247279651000,5.845651123046875,0.037571001797914505,-0.06283008307218552,0.16879913210868835
1758447247289623000,5.855623046875,0.0487901009619236,-0.06289586424827576,0.13316284120082855
1758447247299595000,5.865594970703125,0.05692392960190773,-0.07216579467058182,0.09691508859395981
1758447247309567000,5.87556689453125,0.05180959403514862,-0.08005701005458832,0.06659021228551865
1758447247319540000,5.8855400390625,0.056537386029958725,-0.0791449099779129,0.03181777149438858
1758447247329512200,5.89551220703125,0.06604194641113281,-0.09229081124067307,-0.005374868866056204
1758447247339484000,5.90548388671875,0.056314900517463684,-0.10249073803424835,-0.039425309747457504
1758447247349456100,5.9154560546875,0.06768419593572617,-0.08964578062295914,-0.05973457917571068
1758447247359429000,5.92542919921875,0.09424047917127609,-0.08365029841661453,-0.06667814403772354
1758447247369401000,5.935401123046875,0.11964171379804611,-0.08400982618331909,-0.08019315451383591
1758447247379373000,5.945373046875,0.15958775579929352,-0.07507696747779846,-0.11756912618875504
1758447247389346000,5.955345947265625,0.26803088188171387,-0.081471748650074,-0.17494772374629974
1758447247399318000,5.965318115234375,0.39164745807647705,-0.10852009803056717,-0.21801255643367767
1758447247409290000,5.9752900390625,0.5425024628639221,-0.11595937609672546,-0.24393390119075775
1758447247419262200,5.98526220703125,0.6784000992774963,-0.1457013338804245,-0.2518336772918701
1758447247429235000,5.99523486328125,0.7522434592247009,-0.1555720716714859,-0.2835330367088318
1758447247439207200,6.005207275390625,0.6054918766021729,-0.1086062639951706,-0.3510047197341919
1758447247449179100,6.01517919921875,0.3619101643562317,0.02097010239958763,-0.40536490082740784
1758447247459152000,6.02515185546875,0.15422722697257996,0.15319478511810303,-0.43706515431404114
1758447247469124000,6.0351240234375,0.09489626437425613,0.23349414765834808,-0.38329994678497314
1758447247479096000,6.045095947265625,0.05049775540828705,0.17543195188045502,-0.29216331243515015
1758447247489068000,6.055068115234375,-0.03148685768246651,0.09764047712087631,-0.205689936876297
1758447247499041000,6.065041015625,-0.057223569601774216,0.07634513825178146,-0.11115469038486481
1758447247509013200,6.07501318359375,-0.06067769229412079,0.029894018545746803,0.013287900015711784
1758447247518985000,6.08498486328125,-0.1386626958847046,-0.03706728294491768,0.13646310567855835
1758447247528958200,6.094958251953125,-0.18031001091003418,-0.06333031505346298,0.24491047859191895
1758447247538930200,6.10493017578125,-0.19173720479011536,-0.09987027943134308,0.3116973638534546
1758447247548902100,6.114902099609375,-0.4093576967716217,-0.21062448620796204,0.34543830156326294
1758447247558874000,6.1248740234375,-0.3500979244709015,-0.3117689788341522,0.37947317957878113
1758447247568847000,6.13484716796875,-0.20652931928634644,-0.41606849431991577,0.3709862232208252
1758447247578819000,6.144819091796875,-0.18185955286026,-0.5271619558334351,0.30322346091270447
1758447247588791000,6.154791015625,-0.09577605873346329,-0.5461881160736084,0.23186379671096802
1758447247598763000,6.164762939453125,-0.044173624366521835,-0.47224855422973633,0.18056590855121613
1758447247608736000,6.174736083984375,-0.037914130836725235,-0.3344659209251404,0.18185807764530182
1758447247618708200,6.184708251953125,-0.049999821931123734,-0.163666769862175,0.21216268837451935
1758447247628679700,6.1946796875,-0.10322628915309906,-0.00156148592941463,0.22947749495506287
1758447247638652700,6.204652587890625,-0.17671142518520355,0.13742733001708984,0.21254302561283112
1758447247648624600,6.214624755859375,-0.2683752775192261,0.24327252805233002,0.1654580682516098
1758447247658596900,6.224596923828125,-0.28582707047462463,0.30141904950141907,0.1222544014453888
1758447247668568600,6.234568603515625,-0.25965991616249084,0.3262071907520294,0.11450514197349548
1758447247678541600,6.24454150390625,-0.2291419953107834,0.3398440182209015,0.13772672414779663
1758447247688513800,6.254513671875,-0.16445115208625793,0.3350830674171448,0.19644303619861603
1758447247698485500,6.264485595703125,-0.08674052357673645,0.3062996566295624,0.2960546612739563
1758447247708458800,6.274458740234375,-0.09758331626653671,0.27428102493286133,0.33194127678871155
1758447247718430700,6.2844306640625,-0.14328572154045105,0.35633572936058044,0.28575843572616577
1758447247728402700,6.294402587890625,-0.18241634964942932,0.5004878640174866,0.17440210282802582
1758447247738374700,6.304374755859375,-0.24333474040031433,0.6642315983772278,0.021151741966605186
1758447247748347600,6.31434765625,-0.26986968517303467,0.7805440425872803,-0.08870338648557663
1758447247758319600,6.324319580078125,-0.2542904019355774,0.7407302856445312,-0.12088542431592941
1758447247768291600,6.33429150390625,-0.2457459270954132,0.5567500591278076,-0.09417924284934998
1758447247778264800,6.344264892578125,-0.2311871498823166,0.3469002842903137,-0.03796900063753128
1758447247788236500,6.354236572265625,-0.19803957641124725,0.1735103875398636,0.017743531614542007
1758447247798208800,6.364208740234375,-0.17527827620506287,0.029402080923318863,0.05705948919057846
1758447247808180500,6.374180419921875,-0.16711755096912384,-0.03499022126197815,0.08370655030012131
1758447247818153700,6.38415380859375,-0.1701684594154358,-0.027425536885857582,0.12045308947563171
1758447247828125700,6.394125732421875,-0.17378263175487518,0.03617687523365021,0.17278847098350525
1758447247838097700,6.40409765625,-0.18814101815223694,0.1405135989189148,0.21600183844566345
1758447247848069600,6.414069580078125,-0.2029508650302887,0.25876009464263916,0.22949261963367462
1758447247858042600,6.424042724609375,-0.1993977576494217,0.36754289269447327,0.21458984911441803
1758447247868014600,6.4340146484375,-0.1866433471441269,0.42375823855400085,0.183509960770607
1758447247877986600,6.443986572265625,-0.1665043979883194,0.42465469241142273,0.14027974009513855
1758447247887959800,6.453959716796875,-0.1330750733613968,0.3856731951236725,0.08550465106964111
1758447247897931500,6.463931640625,-0.10136907547712326,0.34347596764564514,0.025677822530269623
1758447247907903700,6.47390380859375,-0.06706969439983368,0.2960197627544403,-0.027860499918460846
1758447247917875700,6.483875732421875,-0.018108848482370377,0.20799891650676727,-0.06669988483190536
1758447247927848700,6.4938486328125,0.024753397330641747,0.09598689526319504,-0.08841077238321304
1758447247937820700,6.503820556640625,0.06233322620391846,-0.013130741193890572,-0.09507439285516739
1758447247947793000,6.51379296875,0.09395772963762283,-0.09842779487371445,-0.10563462972640991
1758447247957765600,6.523765625,0.11199250817298889,-0.16324535012245178,-0.12559571862220764
1758447247967737600,6.533737548828125,0.13320031762123108,-0.2201368659734726,-0.1501343548297882
1758447247977709800,6.543709716796875,0.15373602509498596,-0.2754250764846802,-0.16705666482448578
1758447247987681500,6.553681640625,0.16980421543121338,-0.33246544003486633,-0.1682894378900528
1758447247997654800,6.56365478515625,0.1758134514093399,-0.39207834005355835,-0.15794843435287476
1758447248007626800,6.573626708984375,0.1646297723054886,-0.4496060609817505,-0.13158419728279114
1758447248017598700,6.5835986328125,0.13484930992126465,-0.49569645524024963,-0.10744133591651917
1758447248027571700,6.59357177734375,0.10149534791707993,-0.5349586606025696,-0.09769949316978455
1758447248037543700,6.603543701171875,0.06712207943201065,-0.5778219699859619,-0.0950489342212677
1758447248047515600,6.613515625,0.04930500313639641,-0.6063982248306274,-0.06360472738742828
1758447248057487600,6.623487548828125,0.03313006833195686,-0.6103278398513794,0.0002830037847161293
1758447248067460900,6.6334609375,0.0035101233515888453,-0.5634157061576843,0.08383488655090332
1758447248077432600,6.6434326171875,-0.03527790680527687,-0.46073535084724426,0.17652098834514618
1758447248087404800,6.65340478515625,-0.0603739395737648,-0.29695627093315125,0.25843876600265503
1758447248097376500,6.66337646484375,-0.06833074241876602,-0.136349156498909,0.31745094060897827
1758447248107349800,6.673349853515625,-0.07274839282035828,0.0007344004698097706,0.34833669662475586
1758447248117321700,6.68332177734375,-0.06804829090833664,0.10702565312385559,0.36240559816360474
1758447248127293700,6.693293701171875,-0.056832656264305115,0.16379305720329285,0.37458422780036926
1758447248137266700,6.7032666015625,-0.0426403284072876,0.16987797617912292,0.4007473587989807
1758447248147238700,6.71323876953125,-0.03788818418979645,0.1509263962507248,0.4476458728313446
1758447248157210600,6.723210693359375,-0.03561703860759735,0.1185375303030014,0.5178744792938232
1758447248167182600,6.7331826171875,-0.02652261033654213,0.0868871882557869,0.6056506633758545
1758447248177155800,6.74315576171875,-0.007204344961792231,0.0749344602227211,0.6903896927833557
1758447248187127600,6.75312744140625,0.015043701976537704,0.09489032626152039,0.7352474331855774
1758447248197099800,6.763099853515625,0.042458970099687576,0.13814084231853485,0.7143082618713379
1758447248207072800,6.77307275390625,0.07933709025382996,0.19009271264076233,0.6435099840164185
1758447248217044500,6.78304443359375,0.12967558205127716,0.25547313690185547,0.544875979423523
1758447248227016700,6.7930166015625,0.18308395147323608,0.32737529277801514,0.43828830122947693
1758447248236988700,6.80298876953125,0.21735024452209473,0.37014633417129517,0.3448483645915985
1758447248246961700,6.812961669921875,0.23278352618217468,0.3426726162433624,0.28692543506622314
1758447248256933600,6.82293359375,0.23309332132339478,0.23609250783920288,0.26972484588623047
1758447248266905900,6.83290576171875,0.24199840426445007,0.11806760728359222,0.270251601934433
1758447248276877600,6.842877685546875,0.2500550448894501,0.04346625879406929,0.2708911597728729
1758447248286850800,6.852850830078125,0.2516438663005829,0.005959631875157356,0.2666942775249481
1758447248296822800,6.86282275390625,0.2487930804491043,0.006028377916663885,0.27044379711151123
1758447248306794800,6.872794677734375,0.2432025671005249,0.03401181101799011,0.2807305157184601
1758447248316767700,6.882767822265625,0.2400500774383545,0.0781312957406044,0.29306676983833313
1758447248326739700,6.89273974609375,0.24886514246463776,0.11884410679340363,0.29383108019828796
1758447248336711700,6.902711669921875,0.2645203173160553,0.14668676257133484,0.2783753573894501
1758447248346683600,6.91268359375,0.28446605801582336,0.15603525936603546,0.2422245740890503
1758447248356657000,6.922656982421875,0.2911037504673004,0.14505796134471893,0.19462642073631287
1758447248366628600,6.932628662109375,0.2803288698196411,0.10928372293710709,0.15275593101978302
1758447248376600800,6.942600830078125,0.2643040120601654,0.06761420518159866,0.1342717856168747
1758447248386573800,6.95257373046875,0.2479652613401413,0.046083349734544754,0.14882276952266693
1758447248396545500,6.962545654296875,0.2405877709388733,0.04883595556020737,0.18561455607414246
1758447248406517800,6.972517822265625,0.23129813373088837,0.04689131677150726,0.21099235117435455
1758447248416489700,6.98248974609375,0.21725626289844513,0.0251862034201622,0.2173515260219574
1758447248426462700,6.992462646484375,0.20758205652236938,-0.04719292372465134,0.20013073086738586
1758447248436434700,7.0024345703125,0.22140322625637054,-0.1633477807044983,0.17317521572113037
1758447248446406700,7.01240673828125,0.25400832295417786,-0.2822992205619812,0.15387500822544098
1758447248456378600,7.022378662109375,0.30624669790267944,-0.3739824593067169,0.146808460354805
1758447248466351900,7.032351806640625,0.35049059987068176,-0.4130571484565735,0.15510794520378113
1758447248476323600,7.042323486328125,0.3748350143432617,-0.3965770900249481,0.17003312706947327
1758447248486295800,7.0522958984375,0.37801748514175415,-0.3315221965312958,0.19177411496639252
1758447248496268800,7.062268798828125,0.3647735118865967,-0.21600499749183655,0.22663840651512146
1758447248506240500,7.072240478515625,0.33766570687294006,-0.09071685373783112,0.26073354482650757
1758447248516212700,7.082212646484375,0.2843632400035858,-0.03328799828886986,0.2659212648868561
1758447248526184400,7.092184326171875,0.23639412224292755,-0.047655753791332245,0.22615386545658112
1758447248536157700,7.10215771484375,0.19752739369869232,-0.08733014017343521,0.16183118522167206
1758447248546129700,7.112129638671875,0.13911893963813782,-0.15094906091690063,0.08552151173353195
1758447248556101600,7.1221015625,0.09006943553686142,-0.2192011922597885,-0.029498804360628128
1758447248566074600,7.13207470703125,0.060327254235744476,-0.2919108271598816,-0.1929609626531601
1758447248576046600,7.142046630859375,-0.010350757278501987,-0.3393755555152893,-0.38735899329185486
1758447248586018600,7.1520185546875,-0.1014774739742279,-0.3030441701412201,-0.6035299301147461
1758447248595990800,7.16199072265625,-0.18919110298156738,-0.1631919890642166,-0.8213966488838196
1758447248605963800,7.1719638671875,-0.26217690110206604,0.12062188982963562,-1.0315754413604736
1758447248615935500,7.181935546875,-0.33194079995155334,0.5510457158088684,-1.2271842956542969
1758447248625908200,7.191908203125,-0.40260058641433716,1.1188561916351318,-1.39737868309021
1758447248635881200,7.201881103515625,-0.5022377967834473,1.7484261989593506,-1.528212070465088
1758447248645853200,7.211853271484375,-0.6292769908905029,2.3617520332336426,-1.6039150953292847
1758447248655825200,7.2218251953125,-0.7590438723564148,2.8859875202178955,-1.6172688007354736
1758447248665797000,7.231797119140625,-0.8473114371299744,3.264597177505493,-1.553642749786377
1758447248675770400,7.241770263671875,-0.9262158870697021,3.4557905197143555,-1.454530954360962
1758447248685742000,7.2517421875,-0.9824005961418152,3.4351611137390137,-1.324586033821106
1758447248695714300,7.26171435546875,-0.9546354413032532,3.2158491611480713,-1.1618564128875732
1758447248705686300,7.271686279296875,-0.8841999173164368,2.851922035217285,-0.9943870902061462
1758447248715659300,7.2816591796875,-0.8085178732872009,2.4665236473083496,-0.9447857141494751
1758447248725631200,7.29163134765625,-0.777876615524292,2.075502395629883,-1.030788779258728
1758447248735603500,7.301603515625,-0.7931355237960815,1.6021549701690674,-1.1912270784378052
1758447248745576200,7.311576171875,-0.813363790512085,1.1722270250320435,-1.3472633361816406
1758447248755548200,7.321548095703125,-0.831719160079956,0.7152507901191711,-1.496973991394043
1758447248765520400,7.331520263671875,-0.8414466381072998,0.35669317841529846,-1.6525534391403198
1758447248775492000,7.3414921875,-0.7956917881965637,0.2125675231218338,-1.8242030143737793
1758447248785465300,7.35146533203125,-0.7024089694023132,0.19179940223693848,-1.9604429006576538
1758447248795437300,7.361437255859375,-0.6658691763877869,0.10223449021577835,-1.968428134918213
1758447248805409300,7.3714091796875,-0.7424004077911377,-0.13418389856815338,-1.8497235774993896
1758447248815382300,7.38138232421875,-0.797770082950592,-0.31806203722953796,-1.7188245058059692
1758447248825354000,7.39135400390625,-0.8701335191726685,-0.5399813652038574,-1.5559897422790527
1758447248835326200,7.401326171875,-0.964410126209259,-0.7212515473365784,-1.35880446434021
1758447248845298200,7.411298095703125,-1.0005813837051392,-0.7074372172355652,-1.220043420791626
1758447248855271200,7.421271240234375,-1.037004828453064,-0.4392642676830292,-1.1341291666030884
1758447248865243100,7.4312431640625,-1.0552469491958618,-0.13028457760810852,-1.1093116998672485
1758447248875215400,7.44121533203125,-1.064631700515747,0.07283847033977509,-1.0721158981323242
1758447248885187000,7.45118701171875,-1.0441838502883911,0.07097319513559341,-0.9928979277610779
1758447248895160300,7.461160400390625,-1.005618929862976,-0.1296200305223465,-0.9538393616676331
1758447248905132300,7.47113232421875,-0.9479629397392273,-0.41879960894584656,-0.9143854379653931
1758447248915104300,7.481104248046875,-0.8681522607803345,-0.6583852767944336,-0.8485205173492432
1758447248925077200,7.4910771484375,-0.7870733737945557,-0.7866638898849487,-0.7387519478797913
1758447248935049200,7.50104931640625,-0.6904350519180298,-0.8151001334190369,-0.5752851963043213
1758447248945021200,7.511021240234375,-0.5511208772659302,-0.791641116142273,-0.3766237795352936
1758447248954993200,7.5209931640625,-0.38860681653022766,-0.7852910757064819,-0.16600541770458221
1758447248964966400,7.53096630859375,-0.24245867133140564,-0.7784989476203918,0.045927081257104874
1758447248974938000,7.540938232421875,-0.10921353101730347,-0.7851362824440002,0.23843450844287872
1758447248984910300,7.550910400390625,0.03655938059091568,-0.8561851382255554,0.40393826365470886
1758447248994883300,7.56088330078125,0.21831026673316956,-0.9858739376068115,0.5451275706291199
1758447249004855000,7.57085498046875,0.3867802619934082,-1.125079870223999,0.671688973903656
1758447249014827300,7.5808271484375,0.5266971588134766,-1.2770376205444336,0.8079565763473511
1758447249024799200,7.59079931640625,0.6420801877975464,-1.4724299907684326,0.9576930999755859
1758447249034772200,7.600772216796875,0.737529993057251,-1.6738665103912354,1.0700552463531494
1758447249044744200,7.610744140625,0.8244380354881287,-1.7914538383483887,1.1049895286560059
1758447249054716200,7.620716064453125,0.8655420541763306,-1.865922212600708,1.036855697631836
1758447249064689200,7.630689208984375,0.8682941198348999,-1.8745102882385254,0.8778421878814697
1758447249074661400,7.640661376953125,0.8258806467056274,-1.8135058879852295,0.6672667860984802
1758447249084633000,7.650633056640625,0.7153530716896057,-1.7273286581039429,0.4574999511241913
1758447249094605300,7.660605224609375,0.5913935303688049,-1.5893417596817017,0.3072603940963745
1758447249104578300,7.670578369140625,0.41518232226371765,-1.4351335763931274,0.22420227527618408
1758447249114550000,7.680550048828125,0.20346224308013916,-1.2764784097671509,0.205250084400177
1758447249124522200,7.690522216796875,0.007867967709898949,-1.1169925928115845,0.23505724966526031
1758447249134494200,7.700494140625,-0.11153934895992279,-0.9689244031906128,0.29210391640663147
1758447249144467200,7.71046728515625,-0.1996271312236786,-0.895236074924469,0.3522647023200989
1758447249154439200,7.720439208984375,-0.22234046459197998,-0.8590289354324341,0.42764297127723694
1758447249164411400,7.730411376953125,-0.11706278473138809,-0.8387441635131836,0.5474420189857483
1758447249174384000,7.740384033203125,0.17201948165893555,-0.7186102867126465,0.6697467565536499
1758447249184356000,7.750356201171875,0.4596078395843506,-0.49070626497268677,0.7980424165725708
1758447249194328300,7.760328369140625,0.6534072160720825,-0.23507653176784515,0.8980743885040283
1758447249204300300,7.77030029296875,0.457055002450943,0.12423504143953323,0.9349762201309204
1758447249214273300,7.780273193359375,-0.04448707401752472,0.5505014061927795,0.9487152695655823
1758447249224245200,7.790245361328125,-0.32294824719429016,0.7853389382362366,1.0316228866577148
1758447249234217200,7.80021728515625,-0.2386835664510727,0.8052774667739868,1.0992616415023804
1758447249244189200,7.810189208984375,-0.06375996023416519,0.7596604824066162,1.1002682447433472
1758447249254162400,7.820162353515625,0.07135901600122452,0.6396053433418274,1.0459529161453247
1758447249264134100,7.830134033203125,0.15563662350177765,0.4527457058429718,0.9375912547111511
1758447249274106400,7.8401064453125,0.1970226764678955,0.27629026770591736,0.7969157099723816
1758447249284079400,7.850079345703125,0.25830814242362976,0.04003913328051567,0.6465741395950317
1758447249294051000,7.860051025390625,0.35476842522621155,-0.14438441395759583,0.43297120928764343
1758447249304023300,7.870023193359375,0.44060319662094116,-0.2823915481567383,0.19127924740314484
1758447249313995000,7.8799951171875,0.4796594977378845,-0.40589216351509094,-0.06440657377243042
1758447249323968300,7.88996826171875,0.47721606492996216,-0.5503548383712769,-0.3120310306549072
1758447249333940200,7.899940185546875,0.5168451070785522,-0.6794176697731018,-0.4963461756706238
1758447249343912200,7.909912109375,0.7025984525680542,-0.7717161774635315,-0.5949715375900269
1758447249353885200,7.91988525390625,0.9908016324043274,-0.878579318523407,-0.6330204606056213
1758447249363857200,7.929857177734375,1.2804938554763794,-1.0899834632873535,-0.6593031883239746
1758447249373829000,7.9398291015625,1.558900237083435,-1.3110344409942627,-0.6414589881896973
1758447249383801300,7.94980126953125,1.7720400094985962,-1.4803951978683472,-0.5298927426338196
1758447249393774300,7.9597744140625,1.8476974964141846,-1.6600027084350586,-0.363559365272522
1758447249403746000,7.96974609375,1.7597923278808594,-1.864387035369873,-0.09867685288190842
1758447249413718300,7.97971826171875,1.4385215044021606,-2.131800413131714,0.30931562185287476
1758447249423691300,7.989691162109375,0.8593841195106506,-2.397897243499756,0.9394515156745911
1758447249433663200,7.999663330078125,0.22200556099414825,-2.342355489730835,1.637077808380127
1758447249443635200,8.00963525390625,0.010423270985484123,-1.6424241065979004,2.1810529232025146
1758447249453607400,8.019607421875,-0.01936768740415573,-0.5216087698936462,2.4867992401123047
1758447249463580200,8.029580078125,-0.05841255560517311,0.6526077389717102,2.503180980682373
1758447249473552100,8.03955224609375,-0.10861637443304062,1.6130629777908325,2.217961311340332
1758447249483524400,8.0495244140625,-0.1361880898475647,2.153529167175293,1.7218862771987915
1758447249493496000,8.05949609375,-0.19923226535320282,2.3036787509918213,1.207987666130066
1758447249503469300,8.06946923828125,-0.22545801103115082,2.1690807342529297,0.8118671774864197
1758447249513441300,8.079441162109376,-0.15171149373054504,1.852051854133606,0.5896648168563843
1758447249523413200,8.089413330078125,-0.03255607932806015,1.4087315797805786,0.5163900852203369
1758447249533386200,8.09938623046875,0.06074754148721695,0.8692324161529541,0.5183473229408264
1758447249543358200,8.109358154296874,0.09734150767326355,0.3229227066040039,0.551101803779602
1758447249553330200,8.119330078125,0.10584045201539993,-0.1354651004076004,0.5858659148216248
1758447249563302400,8.129302490234375,0.12918917834758759,-0.4416937232017517,0.60989910364151
1758447249573275400,8.139275390625,0.16054238379001617,-0.6270650625228882,0.6188569068908691
1758447249583247000,8.1492470703125,0.18980546295642853,-0.733023464679718,0.6187695860862732
1758447249593219300,8.15921923828125,0.21349619328975677,-0.7857770323753357,0.6214519739151001
1758447249603191000,8.16919091796875,0.24411456286907196,-0.7844095230102539,0.6440776586532593
1758447249613164300,8.179164306640626,0.2684263586997986,-0.7446057796478271,0.6839454174041748
1758447249623136300,8.18913623046875,0.2857459485530853,-0.6305164694786072,0.7225410342216492
1758447249633108200,8.199108154296875,0.2769550681114197,-0.4290101230144501,0.7633953094482422
1758447249643081200,8.209081298828124,0.25935423374176025,-0.15048635005950928,0.8164268136024475
1758447249653053200,8.21905322265625,0.2606477737426758,0.1415134072303772,0.8615026473999023
1758447249663025200,8.229025146484375,0.2623000144958496,0.42526522278785706,0.8817586302757263
1758447249672997000,8.2389970703125,0.29359397292137146,0.7057856917381287,0.8447287678718567
1758447249682970400,8.248970458984376,0.3381374478340149,0.9570887684822083,0.7112402319908142
1758447249692942000,8.258942138671875,0.35853850841522217,1.1165701150894165,0.47993698716163635
1758447249702914300,8.268914306640625,0.3627138137817383,1.117493748664856,0.2103337198495865
1758447249712887300,8.27888720703125,0.35018542408943176,0.9751623272895813,-0.03744170814752579
1758447249722859300,8.288859375,0.31652307510375977,0.715615451335907,-0.22724120318889618
1758447249732831200,8.298831298828125,0.257982075214386,0.39839261770248413,-0.3110594153404236
1758447249742803200,8.30880322265625,0.15373797714710236,0.07204221189022064,-0.2404065579175949
1758447249752776200,8.318776123046876,0.019136106595396996,-0.2300974577665329,-0.03440793976187706
1758447249762748200,8.328748046875,-0.10974517464637756,-0.4447908401489258,0.15895912051200867
1758447249772720000,8.33872021484375,-0.20091354846954346,-0.4686919152736664,0.2075207531452179
1758447249782692000,8.348692138671876,-0.2879389822483063,-0.3236044943332672,0.0754745677113533
1758447249792665300,8.358665283203125,-0.3845670819282532,0.024282505735754967,-0.17808468639850616
1758447249802637000,8.368636962890625,-0.4804443418979645,0.5140186548233032,-0.5220127701759338
1758447249812609300,8.378609375,-0.5755457878112793,1.051573395729065,-0.961335301399231
1758447249822582300,8.388582275390625,-0.6861213445663452,1.6036890745162964,-1.4671292304992676
1758447249832554000,8.398553955078125,-0.8065748810768127,2.106478452682495,-1.9686496257781982
1758447249842526200,8.408526123046874,-0.9288858771324158,2.4036405086517334,-2.3943371772766113
1758447249852498200,8.418498291015625,-1.0464348793029785,2.373586416244507,-2.665292739868164
1758447249862471200,8.42847119140625,-1.1620930433273315,1.9826503992080688,-2.711348056793213
1758447249872443100,8.438443115234374,-1.2357791662216187,1.3643560409545898,-2.5927231311798096
1758447249882415400,8.448415283203126,-1.2075179815292358,0.7404155135154724,-2.423062562942505
1758447249892388000,8.45838818359375,-1.091664433479309,0.26792392134666443,-2.295861005783081
1758447249902360300,8.4683603515625,-0.9155789017677307,0.022097118198871613,-2.180025577545166
1758447249912332000,8.47833203125,-0.7483483552932739,0.035281918942928314,-2.050764799118042
1758447249922304300,8.48830419921875,-0.6999725699424744,0.22534692287445068,-1.8881945610046387
1758447249932277200,8.49827734375,-0.6922877430915833,0.6257800459861755,-1.715842843055725
1758447249942249000,8.5082490234375,-0.696395993232727,1.5102380514144897,-1.4588547945022583
1758447249952221200,8.51822119140625,-0.7374957799911499,2.6146373748779297,-1.1548932790756226
1758447249962193200,8.528193115234375,-0.7133270502090454,3.3598296642303467,-0.9108021855354309
1758447249972166100,8.538166259765624,-0.7520768046379089,3.35599946975708,-0.8263002038002014
1758447249982138000,8.54813818359375,-0.8231595158576965,3.034085273742676,-0.8371765613555908
1758447249992110300,8.5581103515625,-0.9006732106208801,1.9596152305603027,-0.7930652499198914
1758447250002083000,8.5680830078125,-0.961950421333313,0.27140364050865173,-0.7344791293144226
1758447250012055000,8.578054931640626,-0.9948403835296631,-1.0837886333465576,-0.9375404119491577
1758447250022027300,8.58802734375,-1.032080054283142,-1.776310920715332,-1.175241470336914
1758447250031999200,8.597999267578125,-1.0896551609039307,-1.7014496326446533,-1.4143553972244263
1758447250041972200,8.60797216796875,-1.1025477647781372,-1.1042461395263672,-1.6395373344421387
1758447250051944200,8.617944091796875,-1.0682493448257446,-0.551052987575531,-1.7973288297653198
1758447250061916200,8.627916259765625,-0.9995152950286865,-0.41434550285339355,-1.8774532079696655
1758447250071889200,8.63788916015625,-0.9421242475509644,-0.6780585646629333,-1.9365131855010986
1758447250081861400,8.647861328125,-0.9097740054130554,-0.9024327993392944,-1.8317539691925049
1758447250091833000,8.6578330078125,-0.9049896597862244,-1.0816621780395508,-1.5612950325012207
1758447250101805300,8.667805419921875,-0.8163609504699707,-1.1414794921875,-1.1850553750991821
1758447250111778300,8.6777783203125,-0.7056857943534851,-1.1189180612564087,-0.7676056027412415
1758447250121750000,8.68775,-0.5734580159187317,-1.0648177862167358,-0.40379568934440613
1758447250131722200,8.69772216796875,-0.43360140919685364,-1.04801344871521,-0.09347327053546906
1758447250141694000,8.70769384765625,-0.2877880334854126,-1.0656253099441528,0.17228198051452637
1758447250151667200,8.717667236328126,-0.11840973794460297,-1.13201105594635,0.4000285565853119
1758447250161639200,8.72763916015625,0.09693693369626999,-1.1690239906311035,0.6386603713035583
1758447250171611100,8.737611083984374,0.32643923163414,-1.2176741361618042,0.9032111763954163
1758447250181584100,8.747584228515626,0.5425079464912415,-1.3503093719482422,1.192599892616272
1758447250191556000,8.75755615234375,0.7329163551330566,-1.6203092336654663,1.485875129699707
1758447250201528000,8.767528076171875,0.923494279384613,-1.8942457437515259,1.7109452486038208
1758447250211500300,8.777500244140626,1.1107633113861084,-2.029982328414917,1.8170418739318848
1758447250221473300,8.787473388671875,1.2457523345947266,-1.9774155616760254,1.7267037630081177
1758447250231445000,8.797445068359375,1.2436463832855225,-1.7500728368759155,1.4097411632537842
1758447250241417200,8.807417236328124,1.0894269943237305,-1.3917207717895508,0.7984601855278015
1758447250251389200,8.81738916015625,0.9836032390594482,-1.3033874034881592,0.17577357590198517
1758447250261362200,8.827362060546875,0.7928237318992615,-1.5963973999023438,-0.12095530331134796
1758447250271334100,8.837334228515624,0.43302181363105774,-1.6207181215286255,-0.17645767331123352
1758447250281306400,8.847306396484376,0.05229763686656952,-1.3424755334854126,-0.10560934245586395
1758447250291279000,8.857279052734375,-0.1411277949810028,-0.8973678350448608,0.10258233547210693
1758447250301251000,8.8672509765625,-0.09635525196790695,-0.4655466377735138,0.4119380712509155
1758447250311223300,8.877223388671876,0.01914341188967228,-0.3457324206829071,0.6715388298034668
1758447250321195000,8.887195068359375,0.1069243922829628,-0.39663660526275635,0.8683856129646301
1758447250331168300,8.897168212890625,0.3137417733669281,-0.2787640392780304,1.036500334739685
1758447250341140200,8.90714013671875,0.6265020370483398,0.004357692785561085,1.2088401317596436
1758447250351112200,8.9171123046875,0.8710566759109497,0.35064080357551575,1.3622338771820068
1758447250361085200,8.927085205078125,0.9727369546890259,0.6867415904998779,1.4115750789642334
1758447250371057200,8.93705712890625,0.5097541809082031,0.9064597487449646,1.3231862783432007
1758447250381029000,8.947029052734376,-0.2920823395252228,1.1350971460342407,1.2297165393829346
1758447250391001300,8.95700146484375,-0.4365125298500061,1.386391282081604,1.17130446434021
1758447250400974300,8.966974365234375,-0.16808533668518066,1.3230324983596802,1.1572173833847046
1758447250410946000,8.976946044921876,0.1398863047361374,0.8560638427734375,1.1930394172668457
1758447250420918300,8.986918212890625,0.31828293204307556,0.44858819246292114,1.1147449016571045
1758447250430890000,8.996889892578125,0.3841223418712616,0.23324409127235413,0.9448443651199341
1758447250440863200,9.00686328125,0.39598697423934937,0.10497080534696579,0.7339528799057007
1758447250450835200,9.016835205078126,0.4037812054157257,-0.04178391024470329,0.500686526298523
1758447250460807200,9.02680712890625,0.4464530348777771,-0.26070424914360046,0.25119417905807495
1758447250470780200,9.0367802734375,0.49530014395713806,-0.4849947690963745,-0.004984344355762005
1758447250480752000,9.046752197265626,0.5051248073577881,-0.6621211171150208,-0.27745476365089417
1758447250490724000,9.05672412109375,0.5294090509414673,-0.7274360656738281,-0.5221956372261047
1758447250500696000,9.066696044921875,0.6588853001594543,-0.6817759275436401,-0.719343364238739
1758447250510669300,9.07666943359375,0.8816311359405518,-0.4979572296142578,-0.859369695186615
1758447250520641000,9.08664111328125,1.1713861227035522,-0.3135426640510559,-0.9444054961204529
1758447250530613200,9.09661328125,1.4385855197906494,-0.24760667979717255,-0.9893671870231628
1758447250540585200,9.106585205078124,1.536264419555664,-0.29314354062080383,-0.9854238033294678
1758447250550558200,9.11655810546875,1.3990418910980225,-0.39978277683258057,-0.9435830116271973
1758447250560530200,9.1265302734375,1.142291784286499,-0.5291245579719543,-0.8158996105194092
1758447250570502400,9.13650244140625,0.8488405346870422,-0.8779905438423157,-0.42999428510665894
1758447250580475100,9.14647509765625,0.6425566077232361,-2.0138585567474365,0.5763199925422668
1758447250590447000,9.156447021484375,0.5409684181213379,-2.908079147338867,1.5292452573776245
1758447250600419300,9.16641943359375,0.3682844936847687,-3.2524161338806152,2.1591665744781494
1758447250610391000,9.17639111328125,0.20033667981624603,-2.924746513366699,2.55875825881958
1758447250620364300,9.1863642578125,0.030301827937364578,-2.130707263946533,2.753725528717041
1758447250630335700,9.196335693359375,-0.09804963320493698,-1.137191653251648,2.7809479236602783
1758447250640307700,9.2063076171875,-0.18654435873031616,0.0368758924305439,2.554225206375122
1758447250650279700,9.21627978515625,-0.24826450645923615,1.1929080486297607,2.027552366256714
1758447250660253000,9.2262529296875,-0.2682150602340698,1.9397387504577637,1.3555299043655396
1758447250670224600,9.236224609375,-0.2623225152492523,2.1393656730651855,0.7771117091178894
1758447250680196900,9.24619677734375,-0.21334271132946014,1.9236470460891724,0.42357632517814636
1758447250690169900,9.256169921875,-0.10332056879997253,1.454032063484192,0.31838446855545044
1758447250700141600,9.2661416015625,0.02277238667011261,0.836044192314148,0.3805442452430725
1758447250710113800,9.27611376953125,0.12778261303901672,0.16934168338775635,0.4957156181335449
1758447250720085500,9.28608544921875,0.18281203508377075,-0.39380690455436707,0.5675312280654907
1758447250730058800,9.296058837890625,0.2107144445180893,-0.7638342976570129,0.5739457607269287
1758447250740030700,9.30603076171875,0.24484923481941223,-0.9297047257423401,0.546125054359436
1758447250750002700,9.316002685546875,0.2739238142967224,-1.0014504194259644,0.5375167727470398
1758447250759974700,9.325974609375,0.28750085830688477,-1.0454304218292236,0.6225477457046509
1758447250769947600,9.33594775390625,0.2766856551170349,-1.0780184268951416,0.8267585635185242
1758447250779919600,9.345919677734376,0.25405943393707275,-1.066558837890625,1.0920487642288208
1758447250789891800,9.355891845703125,0.238804429769516,-0.9637081027030945,1.3181047439575195
1758447250799864800,9.36586474609375,0.22118496894836426,-0.7447004318237305,1.433665156364441
1758447250809836500,9.37583642578125,0.20205368101596832,-0.3357868492603302,1.4074935913085938
1758447250819808800,9.385808837890625,0.2058470994234085,0.3265889883041382,1.1864149570465088
1758447250829780700,9.39578076171875,0.2379351109266281,1.1178603172302246,0.7717894911766052
1758447250839753700,9.405753662109374,0.28100985288619995,1.654015064239502,0.2923229932785034
1758447250849725700,9.4157255859375,0.29773464798927307,1.7057149410247803,-0.09267856925725937
1758447250859698000,9.425697998046875,0.26654052734375,1.37578284740448,-0.33796554803848267
1758447250869670700,9.435670654296874,0.1926380842924118,0.807910144329071,-0.46749451756477356
1758447250879642600,9.445642578125,0.07895252853631973,0.16061842441558838,-0.539292573928833
1758447250889614800,9.45561474609375,-0.09542467445135117,-0.45893624424934387,-0.6426321864128113
1758447250899586600,9.465586669921874,-0.30246680974960327,-0.9620705246925354,-0.7861132025718689
1758447250909559800,9.475559814453124,-0.49497222900390625,-1.2342209815979004,-0.9686821699142456
1758447250919531800,9.48553173828125,-0.6483535170555115,-1.2234776020050049,-1.1897317171096802
1758447250929503700,9.495503662109375,-0.7756437063217163,-0.918119490146637,-1.4574863910675049
1758447250939475700,9.505475830078124,-0.8651823997497559,-0.3755127191543579,-1.7516850233078003
1758447250949448700,9.51544873046875,-0.8913106322288513,0.3260869085788727,-2.022948741912842
1758447250959420700,9.525420654296875,-0.7975367307662964,1.1576086282730103,-2.2469990253448486
1758447250969393000,9.535392822265624,-0.6823408603668213,1.9637855291366577,-2.4185307025909424
1758447250979366000,9.545365966796876,-0.6432510018348694,2.5550053119659424,-2.455518960952759
1758447250989337600,9.555337646484375,-0.8101600408554077,2.7696802616119385,-2.3145337104797363
1758447250999309800,9.565309814453125,-1.114664077758789,2.525895595550537,-2.04172945022583
1758447251009281500,9.575281494140626,-1.2592999935150146,2.1657299995422363,-1.7369706630706787
1758447251019254800,9.5852548828125,-1.1005358695983887,2.1268389225006104,-1.4890769720077515
1758447251029226800,9.595226806640625,-0.854005753993988,2.418599843978882,-1.2856500148773193
1758447251039198700,9.60519873046875,-0.6620757579803467,2.8711822032928467,-1.1243559122085571
1758447251049170700,9.615170654296875,-0.5905803442001343,3.073042154312134,-1.0830121040344238
1758447251059143700,9.625143798828125,-0.574543833732605,2.9518332481384277,-1.1426727771759033
1758447251069115600,9.63511572265625,-0.5232815742492676,2.7547097206115723,-1.1441131830215454
1758447251079087600,9.645087646484376,-0.4602557122707367,2.143444061279297,-1.1095857620239258
1758447251089060900,9.655060791015625,-0.35124748945236206,0.9480225443840027,-1.1458120346069336
1758447251099032600,9.665032470703125,-0.2570088505744934,-0.11215980350971222,-1.2019809484481812
1758447251109004800,9.6750048828125,-0.23902980983257294,-0.8270558714866638,-1.4478100538253784
1758447251118976800,9.684976806640625,-0.4095799922943115,-0.9909137487411499,-1.758887767791748
1758447251128949800,9.69494970703125,-0.6816866993904114,-0.7624972462654114,-2.0079805850982666
1758447251138921700,9.704921630859374,-0.920063316822052,-0.3472917675971985,-2.0750021934509277
1758447251148894000,9.71489404296875,-0.9908450245857239,0.06408587098121643,-2.054184913635254
1758447251158865700,9.72486572265625,-0.9631963968276978,0.24225853383541107,-1.9722212553024292
1758447251168838700,9.734838623046874,-0.8905149102210999,0.22677206993103027,-1.833897590637207
1758447251178811000,9.744810791015626,-0.8126680254936218,-0.04912262409925461,-1.762233018875122
1758447251188782600,9.754782470703125,-0.7550106048583984,-0.5490514039993286,-1.8032606840133667
1758447251198755800,9.764755859375,-0.6530208587646484,-0.91776043176651,-1.8500670194625854
1758447251208727800,9.774727783203126,-0.5395772457122803,-0.9647766947746277,-1.750617504119873
1758447251218699800,9.78469970703125,-0.46537843346595764,-0.8746678829193115,-1.4798390865325928
1758447251228671700,9.794671630859375,-0.4138106107711792,-0.7935774922370911,-1.116994023323059
1758447251238644500,9.80464453125,-0.35877320170402527,-0.718421220779419,-0.6992087960243225
1758447251248616700,9.81461669921875,-0.2956755757331848,-0.7217451333999634,-0.2952984571456909
1758447251258588700,9.824588623046875,-0.19120799005031586,-0.8109793663024902,0.06003568693995476
1758447251268560600,9.834560546875,-0.058391861617565155,-0.9328494071960449,0.3868166208267212
1758447251278533600,9.84453369140625,0.09623366594314575,-1.0530469417572021,0.6987782716751099
1758447251288505900,9.854505859375,0.26514866948127747,-1.1634374856948853,0.9959686994552612
1758447251298477600,9.8644775390625,0.4179456830024719,-1.2691137790679932,1.2993488311767578
1758447251308450800,9.874450927734374,0.5549802184104919,-1.4205435514450073,1.6152418851852417
1758447251318422800,9.8844228515625,0.6963117718696594,-1.68138587474823,1.9009050130844116
1758447251328394800,9.894394775390625,0.8458913564682007,-1.9790823459625244,2.112549066543579
1758447251338366700,9.90436669921875,0.9659759402275085,-2.1916513442993164,2.1942620277404785
1758447251348339700,9.914339599609375,1.0031014680862427,-2.2000110149383545,2.094268798828125
1758447251358311700,9.924311767578125,0.8711022138595581,-1.8037842512130737,1.6750668287277222
1758447251368283600,9.93428369140625,0.518420934677124,-0.8560213446617126,0.6856587529182434
1758447251378255600,9.944255615234376,0.1929221749305725,-0.5048497319221497,-0.29753080010414124
1758447251388228600,9.954228515625,-0.1321435421705246,-0.5873781442642212,-0.7477466464042664
1758447251398200800,9.964200927734375,-0.30761682987213135,-0.734362006187439,-0.733435869216919
1758447251408172500,9.974172607421876,-0.34053197503089905,-0.9007620215415955,-0.489671915769577
1758447251418145500,9.9841455078125,-0.29939359426498413,-0.9435251951217651,-0.17449505627155304
1758447251428117800,9.99411767578125,-0.09838081896305084,-0.962943971157074,0.1355220377445221
1758447251438089700,10.00408984375,0.1921929568052292,-0.8852472901344299,0.4342477321624756
1758447251448061700,10.014061767578125,0.40492838621139526,-0.555735170841217,0.7547458410263062
1758447251458034700,10.02403466796875,0.4626428186893463,-0.04178931936621666,1.0407724380493164
1758447251468006700,10.034006591796874,0.36426785588264465,0.5217242240905762,1.2607284784317017
1758447251477978600,10.043978515625,0.027307409793138504,1.165514588356018,1.4693245887756348
1758447251487950800,10.053950927734375,-0.3605315387248993,1.6985799074172974,1.6082732677459717
1758447251497923600,10.063923583984375,-0.5388205647468567,1.747749924659729,1.6517049074172974
1758447251507895800,10.073895751953126,-0.44302496314048767,1.4305477142333984,1.625277042388916
1758447251517867800,10.08386767578125,-0.26385998725891113,0.849588930606842,1.6219685077667236
1758447251527840500,10.093840576171875,-0.10057979077100754,0.16160109639167786,1.6380196809768677
1758447251537812700,10.103812744140624,0.04316698759794235,-0.15812471508979797,1.606525182723999
1758447251547784700,10.11378466796875,0.14584699273109436,-0.0765962228178978,1.5210462808609009
1758447251557756700,10.123756591796875,0.20164288580417633,0.0712190717458725,1.3797366619110107
1758447251567729700,10.133729736328124,0.2802278995513916,0.14666259288787842,1.1823899745941162
1758447251577702000,10.143701904296876,0.3681500256061554,0.14087501168251038,0.93491131067276
1758447251587673600,10.153673583984375,0.4105061888694763,0.14899754524230957,0.6748653650283813
1758447251597645800,10.163645751953124,0.41902005672454834,0.22224698960781097,0.398654580116272
1758447251607618800,10.173618896484374,0.404064804315567,0.3608911335468292,0.10489457100629807
1758447251617590800,10.1835908203125,0.3996162414550781,0.5908092856407166,-0.2100985199213028
1758447251627563000,10.19356298828125,0.4434472322463989,0.8480128049850464,-0.5264924764633179
1758447251637535700,10.20353564453125,0.4934896230697632,0.9926043748855591,-0.8226251006126404
1758447251647508000,10.213508056640626,0.5604870915412903,0.8972474336624146,-1.0343830585479736
1758447251657480000,10.22347998046875,0.6619575023651123,0.5754933953285217,-1.0865885019302368
1758447251667452000,10.233451904296874,0.7010191679000854,0.0861656591296196,-1.0139667987823486
1758447251677425000,10.2434248046875,0.6728474497795105,-0.3941197097301483,-0.8496359586715698
1758447251687397000,10.253397216796875,0.6552227735519409,-1.0913305282592773,-0.4389255940914154
1758447251697368800,10.263368896484375,0.6566172242164612,-2.0891802310943604,0.2262987345457077
1758447251707341000,10.273341064453126,0.5567478537559509,-2.9027931690216064,0.8219994306564331
1758447251717314000,10.28331396484375,0.3943890929222107,-3.2222769260406494,1.2285574674606323
1758447251727285800,10.29328564453125,0.27240848541259766,-3.1376664638519287,1.4672940969467163
1758447251737258000,10.303258056640624,0.23712585866451263,-2.872028112411499,1.6584923267364502
1758447251747231000,10.31323095703125,0.24312275648117065,-2.5332090854644775,1.9691439867019653
1758447251757203000,10.323202880859375,0.19690997898578644,-1.8899965286254883,2.3749592304229736
1758447251767175000,10.3331748046875,0.07513994723558426,-0.9177892208099365,2.652752161026001
1758447251777147000,10.34314697265625,-0.0855565220117569,0.23560771346092224,2.6511175632476807
1758447251787119900,10.353119873046875,-0.1805598884820938,1.3121768236160278,2.3746304512023926
1758447251797091800,10.363091796875,-0.21275271475315094,2.1512105464935303,1.9604219198226929
1758447251807063800,10.373063720703126,-0.20567622780799866,2.6080422401428223,1.5681971311569214
1758447251817036000,10.3830361328125,-0.1892908662557602,2.6310267448425293,1.3075886964797974
1758447251827009000,10.393009033203125,-0.17470134794712067,2.2757067680358887,1.217912197113037
1758447251836980700,10.402980712890624,-0.12129591405391693,1.6481218338012695,1.2385021448135376
1758447251846953000,10.412952880859375,-0.0200734231621027,0.9273878931999207,1.2367055416107178
1758447251856925000,10.422925048828125,0.10085646063089371,0.3163367509841919,1.1520713567733765
1758447251866898000,10.43289794921875,0.1845322549343109,-0.14406034350395203,1.0154348611831665
1758447251876870000,10.442869873046876,0.2243949919939041,-0.4881495535373688,0.8870835304260254
1758447251886842000,10.452842041015625,0.24353235960006714,-0.7711014151573181,0.8035523891448975
1758447251896814800,10.46281494140625,0.2417144775390625,-0.9760268330574036,0.7913814783096313
1758447251906786800,10.472786865234376,0.233954519033432,-1.0309112071990967,0.8116384148597717
1758447251916759000,10.482759033203125,0.23610235750675201,-0.8370800018310547,0.796145498752594
1758447251926730800,10.492730712890625,0.2687041461467743,-0.3560170531272888,0.653834342956543
1758447251936704000,10.5027041015625,0.30764326453208923,0.2832515835762024,0.3491639494895935
1758447251946676000,10.512676025390626,0.32919248938560486,0.8193179368972778,-0.02573772706091404
1758447251956648000,10.52264794921875,0.3359774351119995,1.0064349174499512,-0.337054044008255
1758447251966620000,10.532619873046874,0.3136865794658661,0.8223729729652405,-0.5464308261871338
1758447251976593000,10.542593017578126,0.24763540923595428,0.39038240909576416,-0.6615220308303833
1758447251986564900,10.55256494140625,0.12045888602733612,-0.1388871669769287,-0.6892425417900085
1758447251996537000,10.562537109375,-0.07915249466896057,-0.6172942519187927,-0.6754755973815918
1758447252006510000,10.572510009765624,-0.31948399543762207,-0.9031779766082764,-0.6539464592933655
1758447252016481800,10.582481689453125,-0.5579087734222412,-0.8789474368095398,-0.6819972991943359
1758447252026454000,10.5924541015625,-0.7315251231193542,-0.5418229103088379,-0.8359003663063049
1758447252036425700,10.60242578125,-0.849883496761322,-0.004286976531147957,-1.1120489835739136
1758447252046399000,10.61239892578125,-0.9980800747871399,0.6061848998069763,-1.4380645751953125
1758447252056371000,10.622370849609375,-1.123084306716919,1.3014816045761108,-1.7252782583236694
1758447252066343000,10.632343017578124,-1.1819498538970947,2.047114849090576,-1.9455235004425049
1758447252076315000,10.64231494140625,-1.2234171628952026,2.626120090484619,-2.109437942504883
1758447252086288000,10.652287841796875,-1.2563667297363281,2.7864506244659424,-2.214031457901001
1758447252096259800,10.662259765625,-1.25482177734375,2.565511703491211,-2.24320912361145
1758447252106231800,10.672231689453126,-1.1811710596084595,2.1548807621002197,-2.227069616317749
1758447252116205000,10.682205078125,-1.0705393552780151,1.8105359077453613,-2.1782286167144775
1758447252126176800,10.6921767578125,-0.92807537317276,1.6910146474838257,-2.0867409706115723
1758447252136149000,10.70214892578125,-0.7777050137519836,1.8253185749053955,-1.96708345413208
1758447252146121000,10.712120849609375,-0.6995102167129517,2.2045304775238037,-1.7660449743270874
1758447252156094000,10.722093994140625,-0.716006875038147,2.6991214752197266,-1.5043227672576904
1758447252166066000,10.73206591796875,-0.7354699373245239,3.042123794555664,-1.2266963720321655
1758447252176038100,10.7420380859375,-0.6808359622955322,2.9380438327789307,-0.9541416168212891
1758447252186009900,10.752009765625,-0.6919296383857727,2.356438398361206,-0.6942819356918335
1758447252195982800,10.76198291015625,-0.7318235039710999,1.3291457891464233,-0.5401674509048462
1758447252205955000,10.771955078125,-0.7259044051170349,0.41562536358833313,-0.5990946888923645
1758447252215926800,10.7819267578125,-0.7030776143074036,0.0035733673721551895,-0.797273576259613
1758447252225899000,10.79189892578125,-0.6873192191123962,-0.12499817460775375,-1.095704436302185
1758447252235872000,10.8018720703125,-0.7440330982208252,-0.24719519913196564,-1.4759687185287476
1758447252245844000,10.811843994140625,-0.869946300983429,-0.2022470384836197,-1.7499477863311768
1758447252255816000,10.82181591796875,-0.9507532715797424,-0.11710631102323532,-1.973912239074707
1758447252265789000,10.831788818359374,-0.8788284659385681,-0.07552729547023773,-2.1460108757019043
1758447252275761000,10.841760986328126,-0.7229301929473877,-0.12856468558311462,-2.2265994548797607
1758447252285732900,10.85173291015625,-0.5906367897987366,-0.31430503726005554,-2.229795455932617
1758447252295704800,10.861704833984374,-0.5139039754867554,-0.6479994058609009,-2.180488109588623
1758447252305677800,10.871677734375,-0.39805492758750916,-0.9346432089805603,-2.0672709941864014
1758447252315650000,10.881650146484375,-0.251503050327301,-1.1054576635360718,-1.8967258930206299
1758447252325621800,10.891621826171875,-0.13141322135925293,-1.0790764093399048,-1.6133462190628052
1758447252335594000,10.901593994140624,-0.0654672309756279,-0.9082939624786377,-1.2135777473449707
1758447252345567000,10.91156689453125,-0.052011191844940186,-0.7191557884216309,-0.7218539118766785
1758447252355539000,10.9215390625,-0.027993742376565933,-0.6784741282463074,-0.22169414162635803
1758447252365511000,10.931510986328124,0.06797326356172562,-0.8301427364349365,0.22703465819358826
1758447252375484000,10.94148388671875,0.21360450983047485,-1.0399590730667114,0.6217752695083618
1758447252385455900,10.951455810546875,0.4072372317314148,-1.1798009872436523,0.9781740307807922
1758447252395427800,10.961427734375,0.5978902578353882,-1.263818383216858,1.334512710571289
1758447252405400000,10.971400146484376,0.7593746781349182,-1.4371991157531738,1.6943752765655518
1758447252415372800,10.981372802734375,0.8836737275123596,-1.7243064641952515,2.0862479209899902
1758447252425345000,10.991344970703125,0.9168696403503418,-2.085876226425171,2.455000400543213
1758447252435317000,11.00131689453125,0.903189480304718,-2.384917736053467,2.7066361904144287
1758447252445289000,11.0112890625,0.8804869651794434,-2.4726102352142334,2.7789571285247803
1758447252455262000,11.021261962890625,0.7522968053817749,-1.922884464263916,2.3738274574279785
1758447252465234000,11.03123388671875,0.4402540922164917,0.4757191836833954,0.3310315012931824
1758447252475206000,11.041205810546876,0.05196443572640419,-0.07400548458099365,-0.789918839931488
1758447252485178000,11.05117822265625,-0.23836296796798706,-1.0530281066894531,-0.8865233063697815
1758447252495151000,11.061151123046875,-0.31528568267822266,-1.5289884805679321,-0.56557697057724
1758447252505122800,11.071122802734376,-0.3557693362236023,-1.541698694229126,-0.0668298527598381
1758447252515095000,11.081094970703125,-0.3930911421775818,-1.2714613676071167,0.360873818397522
1758447252525068000,11.091068115234375,-0.3023812472820282,-0.8564555048942566,0.6842073798179626
1758447252535040000,11.1010400390625,-0.0485585555434227,-0.3787563443183899,0.9471105933189392
1758447252545012000,11.111011962890625,0.3072222173213959,0.11256902664899826,1.173890233039856
1758447252554984000,11.12098388671875,0.5743290185928345,0.5199178457260132,1.281046986579895
1758447252564957000,11.13095703125,0.6044732332229614,0.8854169845581055,1.2200418710708618
1758447252574929000,11.140928955078126,0.3774672746658325,1.4263074398040771,1.0855886936187744
1758447252584900900,11.15090087890625,-0.055857785046100616,1.7754707336425781,1.002299189567566
1758447252594872800,11.160872802734374,-0.3848420977592468,1.3132578134536743,1.046165108680725
1758447252604846000,11.17084619140625,-0.5094211101531982,0.27662909030914307,1.234837532043457
1758447252614817800,11.18081787109375,-0.3838878870010376,-0.8401734232902527,1.471776008605957
1758447252624790000,11.1907900390625,-0.11492958664894104,-1.5915073156356812,1.6425268650054932
1758447252634762500,11.200762451171874,0.13142240047454834,-1.6134620904922485,1.655409336090088
1758447252644734500,11.210734375,0.23736236989498138,-1.16183340549469,1.523522973060608
1758447252654706400,11.22070654296875,0.238886758685112,-0.6007262468338013,1.273890733718872
1758447252664678700,11.2306787109375,0.225773885846138,-0.02764594927430153,0.9783053994178772
1758447252674651400,11.2406513671875,0.21319684386253357,0.5064619183540344,0.6747798919677734
1758447252684623400,11.250623291015625,0.21581630408763885,0.8901995420455933,0.35849130153656006
1758447252694595600,11.260595703125,0.22343267500400543,1.0518078804016113,0.010602310299873352
1758447252704567600,11.270567626953126,0.26708337664604187,1.0708340406417847,-0.3690926432609558
1758447252714540500,11.28054052734375,0.35157909989356995,0.9589476585388184,-0.7674208879470825
1758447252724512500,11.290512451171875,0.4085276126861572,0.7191187143325806,-1.1327329874038696
1758447252734484500,11.300484375,0.4569185972213745,0.3915744423866272,-1.4507111310958862
1758447252744457500,11.31045751953125,0.5382305383682251,-0.028852714225649834,-1.6514196395874023
1758447252754429700,11.3204296875,0.6077967882156372,-0.581299901008606,-1.638435959815979
1758447252764401400,11.3304013671875,0.5770137310028076,-1.147270679473877,-1.4005237817764282
1758447252774373600,11.34037353515625,0.5333940982818604,-1.5504835844039917,-0.9777166247367859
1758447252784346600,11.3503466796875,0.5169875621795654,-1.71304190158844,-0.4615325629711151
1758447252794318300,11.360318359375,0.5284567475318909,-1.867727279663086,0.15308426320552826
1758447252804290600,11.37029052734375,0.5308446288108826,-2.1171791553497314,0.8676144480705261
1758447252814262300,11.38026220703125,0.49840226769447327,-2.25016450881958,1.5809746980667114
1758447252824235500,11.390235595703125,0.3824656307697296,-2.136092185974121,2.148252487182617
1758447252834207500,11.40020751953125,0.21443240344524384,-1.7478604316711426,2.5001142024993896
1758447252844179500,11.410179443359375,0.05792546272277832,-1.2607266902923584,2.6480467319488525
1758447252854152400,11.42015234375,-0.024166475981473923,-0.7931190133094788,2.654714822769165
1758447252864124400,11.43012451171875,-0.031139619648456573,-0.279082715511322,2.5972182750701904
1758447252874096400,11.440096435546875,-0.006776489783078432,0.31564775109291077,2.465471029281616
1758447252884068600,11.450068603515625,0.014391835778951645,0.8538019061088562,2.2868268489837646
1758447252894041600,11.46004150390625,0.0386606901884079,1.2877682447433472,2.1019957065582275
1758447252904013300,11.470013427734376,0.05273526906967163,1.5404928922653198,1.944493055343628
1758447252913985500,11.479985595703125,0.04124879091978073,1.5309590101242065,1.8107398748397827
1758447252923957500,11.48995751953125,-0.009343739598989487,1.2932595014572144,1.658249020576477
1758447252933930500,11.499930419921874,-0.049294352531433105,0.9542086720466614,1.4692072868347168
1758447252943902500,11.50990234375,-0.034590162336826324,0.5993327498435974,1.2731575965881348
1758447252953874400,11.51987451171875,0.03168632835149765,0.26099759340286255,1.1164746284484863
1758447252963847400,11.529847412109374,0.09954573214054108,-0.06624241918325424,1.04002845287323
1758447252973819400,11.5398193359375,0.12406012415885925,-0.34523332118988037,1.0296871662139893
1758447252983791400,11.549791259765625,0.08147621154785156,-0.5249648094177246,1.0357483625411987
1758447252993763300,11.559763427734374,0.034201644361019135,-0.4935493767261505,0.9688082337379456
1758447253003736600,11.569736572265626,0.06837335228919983,-0.17520178854465485,0.7501385807991028
1758447253013708300,11.579708251953125,0.17774882912635803,0.32846882939338684,0.3729061186313629
1758447253023680500,11.589680419921875,0.3025783896446228,0.7801914811134338,-0.07349376380443573
1758447253033653500,11.599653564453124,0.3854871392250061,0.946803629398346,-0.4474891722202301
1758447253043625500,11.60962548828125,0.4087374210357666,0.778650164604187,-0.6950495839118958
1758447253053597400,11.619597412109375,0.3851015865802765,0.34327763319015503,-0.7992609739303589
1758447253063569700,11.629569580078124,0.31612807512283325,-0.2481948286294937,-0.7780331373214722
1758447253073542400,11.63954248046875,0.18723294138908386,-0.8650044798851013,-0.7016382217407227
1758447253083514400,11.649514404296875,0.02341991476714611,-1.3260542154312134,-0.6501631736755371
1758447253093486600,11.659486572265624,-0.16038958728313446,-1.4853349924087524,-0.662050187587738
1758447253103459300,11.669459228515626,-0.35328876972198486,-1.2445826530456543,-0.7763736844062805
1758447253113431600,11.679431640625,-0.5403649210929871,-0.6269639134407043,-1.0171399116516113
1758447253123403500,11.689403564453125,-0.7437158823013306,0.09786287695169449,-1.3044021129608154
1758447253133376300,11.699376220703124,-0.9260965585708618,0.7280663847923279,-1.5976132154464722
1758447253143348500,11.709348388671875,-1.0407121181488037,1.3726279735565186,-1.8280518054962158
1758447253153320400,11.719320556640625,-1.064644694328308,2.0946998596191406,-1.9689924716949463
1758447253163292400,11.72929248046875,-1.0865130424499512,2.682117223739624,-2.054182529449463
1758447253173265400,11.739265380859376,-1.1526732444763184,2.8690974712371826,-2.101274251937866
1758447253183237600,11.749237548828125,-1.2476884126663208,2.5669171810150146,-2.0867655277252197
1758447253193209300,11.759209228515624,-1.2080986499786377,2.02510666847229,-2.0652127265930176
1758447253203182300,11.769182373046876,-1.030646800994873,1.5868964195251465,-2.088284492492676
1758447253213154600,11.779154541015625,-0.8070018887519836,1.4624892473220825,-2.1271820068359375
1758447253223126500,11.78912646484375,-0.6172527074813843,1.6775261163711548,-2.116760492324829
1758447253233098500,11.799098388671876,-0.530672550201416,2.0817344188690186,-2.0316498279571533
1758447253243071500,11.809071533203126,-0.4875240921974182,2.4601809978485107,-1.8819410800933838
1758447253253043500,11.81904345703125,-0.5473431944847107,2.7038328647613525,-1.6960740089416504
1758447253263015400,11.829015380859374,-0.6046804189682007,2.7347140312194824,-1.4474220275878906
1758447253272988700,11.83898876953125,-0.5994073748588562,2.447357416152954,-0.9996711015701294
1758447253282960400,11.84896044921875,-0.5514949560165405,1.4842357635498047,-0.5901917219161987
1758447253292932600,11.8589326171875,-0.5249677896499634,0.20200437307357788,-0.5591301918029785
1758447253302905600,11.868905517578124,-0.46965155005455017,-0.7132366895675659,-0.8867945075035095
1758447253312877300,11.878877197265625,-0.5273841023445129,-0.8551938533782959,-1.4457879066467285
1758447253322849500,11.888849609375,-0.6982845067977905,-0.6250052452087402,-1.9499260187149048
1758447253332821200,11.8988212890625,-0.8206202387809753,-0.3083133399486542,-2.28086519241333
1758447253342794500,11.90879443359375,-0.8767120242118835,0.030009862035512924,-2.38739275932312
1758447253352766500,11.918766357421875,-0.8421671390533447,0.054791372269392014,-2.4181652069091797
1758447253362738400,11.928738525390624,-0.7900083661079407,-0.27758538722991943,-2.4403393268585205
1758447253372711400,11.93871142578125,-0.6763409376144409,-0.74848872423172,-2.469949722290039
1758447253382683400,11.948683349609375,-0.5607697367668152,-0.9336811900138855,-2.326296091079712
1758447253392655400,11.9586552734375,-0.465260773897171,-0.8484262228012085,-1.983071208000183
1758447253402627600,11.968627685546876,-0.39606401324272156,-0.6774008870124817,-1.512921929359436
1758447253412600600,11.9786005859375,-0.32972627878189087,-0.5375087857246399,-1.0208475589752197
1758447253422572300,11.988572265625,-0.2982727587223053,-0.452899307012558,-0.5430943369865417
1758447253432544500,11.99854443359375,-0.2513406574726105,-0.5161046981811523,-0.11946285516023636
1758447253442517500,12.008517578125,-0.21139854192733765,-0.6978210210800171,0.21358472108840942
1758447253452489500,12.018489501953125,-0.14291587471961975,-0.9521188139915466,0.5022255778312683
1758447253462461400,12.02846142578125,-0.007360825780779123,-1.2253825664520264,0.7925752997398376
1758447253472434400,12.038434326171876,0.19271819293498993,-1.490736722946167,1.1290348768234253
1758447253482406400,12.048406494140625,0.39843085408210754,-1.804671049118042,1.500907301902771
1758447253492378400,12.05837841796875,0.584865152835846,-2.2034506797790527,1.9023982286453247
1758447253502350600,12.0683505859375,0.7326045036315918,-2.603990316390991,2.303562641143799
1758447253512323300,12.0783232421875,0.8571893572807312,-2.8740429878234863,2.6234512329101562
1758447253522295600,12.088295654296875,0.8854424953460693,-2.8713138103485107,2.6785433292388916
1758447253532267500,12.098267578125,0.747992753982544,-2.0609946250915527,2.1522715091705322
1758447253542240300,12.108240234375,0.37934502959251404,-0.7991766333580017,0.8879826664924622
1758447253552212500,12.11821240234375,-0.06242038682103157,-0.676103949546814,0.05705910548567772
1758447253562184400,12.128184326171874,-0.27985668182373047,-0.8589531779289246,-0.20151393115520477
1758447253572156400,12.138156494140626,-0.27602678537368774,-1.0205875635147095,-0.15114077925682068
1758447253582129400,12.14812939453125,-0.27520039677619934,-1.1431666612625122,0.02875612862408161
1758447253592101600,12.1581015625,-0.2690926790237427,-1.2316099405288696,0.18805231153964996
1758447253602073300,12.1680732421875,-0.10429665446281433,-1.3065108060836792,0.2720390260219574
1758447253612046600,12.178046630859376,0.1605595201253891,-1.159338355064392,0.3491218090057373
1758447253622018600,12.1880185546875,0.40039384365081787,-0.6240667700767517,0.5057587623596191
1758447253631990500,12.197990478515624,0.5010751485824585,0.16138091683387756,0.7104772329330444
1758447253641963300,12.20796337890625,0.27817755937576294,0.8507344126701355,0.8605157732963562
1758447253651935200,12.217935302734375,-0.15078206360340118,1.1969411373138428,0.9962602853775024
1758447253661907500,12.227907470703125,-0.4561769664287567,1.2551186084747314,1.1911506652832031
1758447253671879200,12.237879150390626,-0.3638949692249298,1.100872278213501,1.41122305393219
1758447253681852400,12.247852294921875,-0.14839883148670197,0.7235137224197388,1.5531445741653442
1758447253691824400,12.257824462890625,0.0003467053174972534,0.18277940154075623,1.6155285835266113
1758447253701796400,12.26779638671875,0.1195649802684784,-0.2527872622013092,1.5592052936553955
1758447253711769300,12.277769287109376,0.20994015038013458,-0.3214204013347626,1.4080405235290527
1758447253721741300,12.2877412109375,0.2867485582828522,-0.10418087244033813,1.2048358917236328
1758447253731713300,12.29771337890625,0.36694246530532837,0.19834384322166443,0.951177716255188
1758447253741685500,12.307685546875,0.45667994022369385,0.519631564617157,0.6531407237052917
1758447253751658500,12.317658447265625,0.5130800604820251,0.7938088178634644,0.3523210287094116
1758447253761630200,12.327630126953125,0.5182015895843506,0.9519625902175903,0.044636067003011703
1758447253771602400,12.3376025390625,0.5135349035263062,0.9929395914077759,-0.24661041796207428
