time,seconds_elapsed,z,y,x
1758440520473913600,0.01191357421875,-0.7835540771484375,-0.616668701171875,0.0052642822265625
1758440520483883500,0.021883544921875,-0.796356201171875,-0.6099700927734375,-0.00543212890625
1758440520493854700,0.031854736328125,-0.8101654052734375,-0.6088409423828125,-0.011077880859375
1758440520503824600,0.04182470703125,-0.828155517578125,-0.6074676513671875,-0.015869140625
1758440520513795600,0.051795654296875,-0.84033203125,-0.60272216796875,-0.0162506103515625
1758440520523765800,0.061765869140625,-0.8406219482421875,-0.59503173828125,-0.0186614990234375
1758440520533735700,0.071735595703125,-0.8205718994140625,-0.593170166015625,-0.0243682861328125
1758440520543706600,0.08170654296875,-0.7855224609375,-0.599395751953125,-0.0214996337890625
1758440520553676500,0.091676513671875,-0.7581634521484375,-0.6089324951171875,-0.0131683349609375
1758440520563647700,0.101647705078125,-0.7547149658203125,-0.6176910400390625,-0.0111541748046875
1758440520573617700,0.11161767578125,-0.7616729736328125,-0.622344970703125,-0.0096282958984375
1758440520583587600,0.121587646484375,-0.76904296875,-0.6230316162109375,-0.0072174072265625
1758440520593558800,0.131558837890625,-0.7764434814453125,-0.6273193359375,-0.0053558349609375
1758440520603528700,0.14152880859375,-0.7739410400390625,-0.632293701171875,-0.0016326904296875
1758440520613499600,0.151499755859375,-0.76837158203125,-0.6345062255859375,0.002532958984375
1758440520623469600,0.161469482421875,-0.7541351318359375,-0.635986328125,0.00726318359375
1758440520633439700,0.171439697265625,-0.755157470703125,-0.635406494140625,0.0106658935546875
1758440520643410700,0.18141064453125,-0.7636566162109375,-0.631622314453125,0.0095672607421875
1758440520653380600,0.191380615234375,-0.7633819580078125,-0.624420166015625,0.01287841796875
1758440520663351800,0.201351806640625,-0.7648468017578125,-0.6227264404296875,0.009490966796875
1758440520673321700,0.21132177734375,-0.7704010009765625,-0.6246795654296875,0.005340576171875
1758440520683291600,0.221291748046875,-0.7756500244140625,-0.6271514892578125,0.0039825439453125
1758440520693262800,0.231262939453125,-0.7755889892578125,-0.6284027099609375,0.0030517578125
1758440520703232800,0.241232666015625,-0.771148681640625,-0.626800537109375,0.0030059814453125
1758440520713203700,0.25120361328125,-0.7649078369140625,-0.6250762939453125,-0.000274658203125
1758440520723173600,0.261173583984375,-0.7671356201171875,-0.6224365234375,-0.003173828125
1758440520733143800,0.271143798828125,-0.766510009765625,-0.6198883056640625,-0.003570556640625
1758440520743114800,0.28111474609375,-0.768096923828125,-0.6199493408203125,-0.0042266845703125
1758440520753084700,0.291084716796875,-0.771484375,-0.620880126953125,-0.0043182373046875
1758440520763055900,0.301055908203125,-0.7728271484375,-0.619415283203125,-0.0008087158203125
1758440520773025800,0.31102587890625,-0.7737274169921875,-0.6235198974609375,0.0015716552734375
1758440520782995700,0.32099560546875,-0.7754364013671875,-0.6235198974609375,0.0010833740234375
1758440520792966700,0.330966552734375,-0.7812347412109375,-0.6234588623046875,-0.0010986328125
1758440520802936800,0.340936767578125,-0.78717041015625,-0.62115478515625,-0.0043182373046875
1758440520812907800,0.35090771484375,-0.79150390625,-0.615936279296875,-0.006072998046875
1758440520822877700,0.360877685546875,-0.7898712158203125,-0.613006591796875,-0.004486083984375
1758440520832847600,0.37084765625,-0.7865447998046875,-0.61407470703125,-0.0014801025390625
1758440520842818800,0.38081884765625,-0.7842559814453125,-0.620697021484375,0.002410888671875
1758440520852788700,0.390788818359375,-0.7725067138671875,-0.626556396484375,0.004791259765625
1758440520862759700,0.400759765625,-0.7713775634765625,-0.6305389404296875,0.0015716552734375
1758440520872729900,0.410729736328125,-0.7723388671875,-0.6324462890625,0.00006103515625
1758440520882699800,0.42069970703125,-0.7734222412109375,-0.6292877197265625,0.002471923828125
1758440520892670700,0.430670654296875,-0.77496337890625,-0.6263427734375,0.0055694580078125
1758440520902640600,0.440640625,-0.7739410400390625,-0.622406005859375,0.0012054443359375
1758440520912611800,0.45061181640625,-0.772613525390625,-0.6165313720703125,-0.0030517578125
1758440520922581800,0.460581787109375,-0.7722625732421875,-0.6145782470703125,-0.0055084228515625
1758440520932551700,0.4705517578125,-0.775238037109375,-0.6158447265625,-0.0040130615234375
1758440520942523000,0.48052294921875,-0.7797088623046875,-0.619354248046875,0.0005645751953125
1758440520952492800,0.490492919921875,-0.7778472900390625,-0.6178131103515625,-0.001190185546875
1758440520962463700,0.500463623046875,-0.77789306640625,-0.61846923828125,-0.0030975341796875
1758440520972434000,0.510433837890625,-0.778350830078125,-0.6206512451171875,-0.0051727294921875
1758440520982403800,0.52040380859375,-0.77471923828125,-0.6218109130859375,-0.006103515625
1758440520992374800,0.530374755859375,-0.7690277099609375,-0.6214599609375,0.002960205078125
1758440521002344700,0.5403447265625,-0.7638702392578125,-0.6193389892578125,0.0109405517578125
1758440521012315600,0.550315673828125,-0.7628021240234375,-0.625030517578125,0.0072784423828125
1758440521022285800,0.560285888671875,-0.7669830322265625,-0.63165283203125,-0.0001983642578125
1758440521032255700,0.570255859375,-0.7739105224609375,-0.6279754638671875,-0.0038604736328125
1758440521042226700,0.580226806640625,-0.783294677734375,-0.6217193603515625,-0.0057830810546875
1758440521052196900,0.59019677734375,-0.7812042236328125,-0.6157073974609375,-0.003692626953125
1758440521062167600,0.60016748046875,-0.7772979736328125,-0.614898681640625,0.0010833740234375
1758440521072137500,0.610137451171875,-0.77825927734375,-0.6171112060546875,0.0040130615234375
1758440521082108000,0.62010791015625,-0.77783203125,-0.6178436279296875,0.0038909912109375
1758440521092078600,0.63007861328125,-0.7804718017578125,-0.617919921875,-0.0029754638671875
1758440521102048500,0.640048583984375,-0.7852630615234375,-0.621185302734375,-0.00628662109375
1758440521112019700,0.650019775390625,-0.7835540771484375,-0.6202545166015625,-0.0037994384765625
1758440521121989600,0.65998974609375,-0.7799224853515625,-0.6210479736328125,-0.002471923828125
1758440521131959600,0.66995947265625,-0.7804412841796875,-0.6197052001953125,-0.0007781982421875
1758440521141930800,0.6799306640625,-0.778076171875,-0.61895751953125,-0.0022430419921875
1758440521151900700,0.689900634765625,-0.7735748291015625,-0.6157989501953125,-0.0020599365234375
1758440521161871600,0.69987158203125,-0.777099609375,-0.618560791015625,0.00189208984375
1758440521171841500,0.709841552734375,-0.7858734130859375,-0.622711181640625,0.003753662109375
1758440521181811700,0.719811767578125,-0.78240966796875,-0.6195831298828125,-0.0023651123046875
1758440521191782700,0.72978271484375,-0.776214599609375,-0.6154937744140625,-0.0055694580078125
1758440521201752600,0.739752685546875,-0.7697601318359375,-0.6178131103515625,0.000030517578125
1758440521211723800,0.749723876953125,-0.766754150390625,-0.619171142578125,0.003936767578125
1758440521221693700,0.759693603515625,-0.7679901123046875,-0.619110107421875,0.006378173828125
1758440521231663600,0.76966357421875,-0.7715606689453125,-0.61810302734375,0.0088348388671875
1758440521241634600,0.779634521484375,-0.777313232421875,-0.618896484375,0.0086517333984375
1758440521251604700,0.789604736328125,-0.7845306396484375,-0.6208343505859375,0.0054931640625
1758440521261575700,0.79957568359375,-0.7901763916015625,-0.6198883056640625,-0.002349853515625
1758440521271545600,0.809545654296875,-0.7885894775390625,-0.6173248291015625,-0.0069122314453125
1758440521281516800,0.819516845703125,-0.7861175537109375,-0.6162872314453125,-0.0104522705078125
1758440521291486700,0.82948681640625,-0.783477783203125,-0.61480712890625,-0.00811767578125
1758440521301456600,0.83945654296875,-0.7816009521484375,-0.6148681640625,-0.0027313232421875
1758440521311427600,0.849427490234375,-0.7778778076171875,-0.6152801513671875,0.0020294189453125
1758440521321397800,0.859397705078125,-0.7794036865234375,-0.618804931640625,0.0081939697265625
1758440521331368700,0.86936865234375,-0.779296875,-0.622955322265625,0.0106048583984375
1758440521341338600,0.879338623046875,-0.778106689453125,-0.62371826171875,0.008697509765625
1758440521351308500,0.88930859375,-0.7797698974609375,-0.6272735595703125,0.00653076171875
1758440521361279700,0.89927978515625,-0.781585693359375,-0.6311798095703125,0.0064544677734375
1758440521371249700,0.909249755859375,-0.7797698974609375,-0.63140869140625,0.0054473876953125
1758440521381220900,0.919220947265625,-0.7715606689453125,-0.626678466796875,0.0054473876953125
1758440521391190800,0.929190673828125,-0.7653961181640625,-0.6179962158203125,0.0048675537109375
1758440521401160700,0.93916064453125,-0.7596588134765625,-0.617706298828125,0.002044677734375
1758440521411131600,0.949131591796875,-0.7593536376953125,-0.621673583984375,0
1758440521421101800,0.959101806640625,-0.7628173828125,-0.6223602294921875,0.0023345947265625
1758440521431072800,0.96907275390625,-0.7675323486328125,-0.621307373046875,0.0054168701171875
1758440521441042700,0.979042724609375,-0.7712249755859375,-0.621246337890625,0.0018463134765625
1758440521451012600,0.9890126953125,-0.7776947021484375,-0.6224517822265625,-0.0006561279296875
1758440521460983800,0.99898388671875,-0.78619384765625,-0.6207122802734375,-0.006256103515625
1758440521470953700,1.00895361328125,-0.7913665771484375,-0.61767578125,-0.0029449462890625
1758440521480925200,1.01892529296875,-0.79437255859375,-0.61956787109375,-0.001861572265625
1758440521490895000,1.02889501953125,-0.7849273681640625,-0.6186065673828125,-0.0038909912109375
1758440521500865000,1.038864990234375,-0.7725982666015625,-0.61810302734375,-0.002655029296875
1758440521510836200,1.048836181640625,-0.7676544189453125,-0.6208953857421875,0.002716064453125
1758440521520806100,1.05880615234375,-0.7661895751953125,-0.6248321533203125,0.0035858154296875
1758440521530777000,1.068777099609375,-0.7674713134765625,-0.6280364990234375,0.0059814453125
1758440521540747000,1.0787470703125,-0.770965576171875,-0.626678466796875,0.0074310302734375
1758440521550718000,1.088718017578125,-0.776123046875,-0.6293487548828125,0.0050811767578125
1758440521560688000,1.098688232421875,-0.78570556640625,-0.6314849853515625,0.005401611328125
1758440521570658000,1.108657958984375,-0.78729248046875,-0.6277923583984375,0.0053863525390625
1758440521580629000,1.11862890625,-0.78460693359375,-0.6188812255859375,0.0055694580078125
1758440521590599200,1.12859912109375,-0.777587890625,-0.616790771484375,0.001922607421875
1758440521600569900,1.13856982421875,-0.7681884765625,-0.616851806640625,-0.0014495849609375
1758440521610540000,1.1485400390625,-0.7627410888671875,-0.6183319091796875,-0.000030517578125
1758440521620510200,1.15851025390625,-0.7595062255859375,-0.62091064453125,0.0013275146484375
1758440521630481000,1.16848095703125,-0.761016845703125,-0.624359130859375,0.0014495849609375
1758440521640451000,1.178451171875,-0.765533447265625,-0.628692626953125,-0.00042724609375
1758440521650422000,1.188422119140625,-0.77197265625,-0.6293182373046875,-0.0005950927734375
1758440521660392000,1.198391845703125,-0.7723846435546875,-0.628936767578125,0.003326416015625
1758440521670362000,1.208362060546875,-0.774566650390625,-0.6239776611328125,0.0009918212890625
1758440521680333000,1.2183330078125,-0.775238037109375,-0.618927001953125,-0.002471923828125
1758440521690303000,1.228302978515625,-0.7790679931640625,-0.6190185546875,-0.0017242431640625
1758440521700274000,1.23827392578125,-0.7826995849609375,-0.6158905029296875,0.0017547607421875
1758440521710243800,1.248243896484375,-0.7838897705078125,-0.61761474609375,0.007415771484375
1758440521720214000,1.258214111328125,-0.786468505859375,-0.6246337890625,0.00994873046875
1758440521730185000,1.26818505859375,-0.7812347412109375,-0.6279144287109375,0.00537109375
1758440521740155000,1.27815478515625,-0.7738189697265625,-0.625946044921875,0.0003662109375
1758440521750126000,1.2881259765625,-0.775482177734375,-0.623992919921875,0.001678466796875
1758440521760096000,1.298095947265625,-0.7803802490234375,-0.623626708984375,0.0026397705078125
1758440521770067000,1.30806689453125,-0.777496337890625,-0.623016357421875,0.0025177001953125
1758440521780036900,1.318036865234375,-0.7691497802734375,-0.6229095458984375,0.0013580322265625
1758440521790007000,1.328007080078125,-0.7622833251953125,-0.6255950927734375,0.0016937255859375
1758440521799978000,1.33797802734375,-0.764434814453125,-0.627044677734375,0.00079345703125
1758440521809948000,1.347947998046875,-0.770416259765625,-0.625579833984375,0.0038604736328125
1758440521819919000,1.357919189453125,-0.7730255126953125,-0.621002197265625,0.0032958984375
1758440521829889000,1.367888916015625,-0.7791900634765625,-0.6197662353515625,0.002532958984375
1758440521839859000,1.37785888671875,-0.78155517578125,-0.62054443359375,0.002899169921875
1758440521849830100,1.387830078125,-0.7753448486328125,-0.61865234375,0.00347900390625
1758440521859800000,1.397800048828125,-0.7709197998046875,-0.6203460693359375,0.004547119140625
1758440521869771000,1.40777099609375,-0.770721435546875,-0.6260833740234375,0.0010986328125
1758440521879741000,1.417740966796875,-0.7741546630859375,-0.6277008056640625,-0.000762939453125
1758440521889711000,1.427711181640625,-0.77716064453125,-0.6253814697265625,0.00042724609375
1758440521899682000,1.43768212890625,-0.777618408203125,-0.62213134765625,0.002532958984375
1758440521909652000,1.44765185546875,-0.774658203125,-0.6210174560546875,0.0041656494140625
1758440521919623200,1.457623046875,-0.7718505859375,-0.62188720703125,0.0037078857421875
1758440521929593000,1.467593017578125,-0.767913818359375,-0.620269775390625,0.00225830078125
1758440521939564000,1.47756396484375,-0.768798828125,-0.6236572265625,0.001251220703125
1758440521949534000,1.487533935546875,-0.77569580078125,-0.62677001953125,0.001800537109375
1758440521959504100,1.497504150390625,-0.7852020263671875,-0.6280364990234375,0.0016937255859375
1758440521969475000,1.50747509765625,-0.7882232666015625,-0.62255859375,0.004608154296875
1758440521979445000,1.517445068359375,-0.7843475341796875,-0.62005615234375,0.0071868896484375
1758440521989416200,1.527416259765625,-0.777313232421875,-0.619964599609375,0.0062103271484375
1758440521999386000,1.53738623046875,-0.7734832763671875,-0.620361328125,0.00225830078125
1758440522009357000,1.547357177734375,-0.7717742919921875,-0.6198883056640625,-0.003509521484375
1758440522019327000,1.557326904296875,-0.769744873046875,-0.619781494140625,-0.0021209716796875
1758440522029297200,1.567297119140625,-0.7676239013671875,-0.62213134765625,-0.001617431640625
1758440522039268000,1.57726806640625,-0.76971435546875,-0.6276702880859375,-0.000579833984375
1758440522049238000,1.587238037109375,-0.77386474609375,-0.6319732666015625,0.0048065185546875
1758440522059209200,1.597209228515625,-0.7753448486328125,-0.6291351318359375,0.0093994140625
1758440522069179100,1.60717919921875,-0.774932861328125,-0.6254730224609375,0.0091552734375
1758440522079149000,1.617149169921875,-0.773162841796875,-0.6229248046875,0.0068817138671875
1758440522089120300,1.627120361328125,-0.7655029296875,-0.6198883056640625,0.003662109375
1758440522099090200,1.637090087890625,-0.762054443359375,-0.6201324462890625,0.003082275390625
1758440522109061000,1.64706103515625,-0.76348876953125,-0.6230010986328125,0.00054931640625
1758440522119031000,1.657031005859375,-0.768218994140625,-0.6240692138671875,-0.001129150390625
1758440522129001200,1.667001220703125,-0.7781982421875,-0.620697021484375,0.000640869140625
1758440522138972200,1.67697216796875,-0.7907867431640625,-0.6225738525390625,-0.0010223388671875
1758440522148942000,1.686942138671875,-0.79193115234375,-0.621002197265625,-0.005279541015625
1758440522158913000,1.6969130859375,-0.7843475341796875,-0.6176910400390625,-0.0038909912109375
1758440522168883200,1.70688330078125,-0.7780303955078125,-0.61968994140625,-0.0009918212890625
1758440522178854000,1.71685400390625,-0.7718963623046875,-0.6236419677734375,-0.00048828125
1758440522188824000,1.726823974609375,-0.7653045654296875,-0.6253204345703125,0.00372314453125
1758440522198794200,1.736794189453125,-0.7664794921875,-0.626739501953125,0.004425048828125
1758440522208765000,1.746764892578125,-0.7721405029296875,-0.6302490234375,0.0045928955078125
1758440522218735000,1.756735107421875,-0.773529052734375,-0.6290740966796875,0.0028228759765625
1758440522228706000,1.7667060546875,-0.7734375,-0.624114990234375,0.0028839111328125
1758440522238676000,1.776676025390625,-0.7723236083984375,-0.6234588623046875,0.003631591796875
1758440522248647000,1.78664697265625,-0.7734222412109375,-0.6208953857421875,0.0033416748046875
1758440522258616800,1.796616943359375,-0.779388427734375,-0.6181488037109375,-0.0001373291015625
1758440522268587000,1.8065869140625,-0.7848052978515625,-0.617095947265625,-0.0025177001953125
1758440522278558000,1.816557861328125,-0.7852020263671875,-0.61920166015625,-0.0022430419921875
1758440522288528000,1.82652783203125,-0.7809906005859375,-0.6207122802734375,0.000823974609375
1758440522298499000,1.8364990234375,-0.774261474609375,-0.622283935546875,0.003265380859375
1758440522308469000,1.846468994140625,-0.7732391357421875,-0.622772216796875,0.0030059814453125
1758440522318439000,1.85643896484375,-0.7706756591796875,-0.6234283447265625,0.00103759765625
1758440522328410000,1.86641015625,-0.76641845703125,-0.6242523193359375,-0.00042724609375
1758440522338380000,1.876380126953125,-0.769256591796875,-0.624053955078125,-0.00311279296875
1758440522348351000,1.88635107421875,-0.7736663818359375,-0.6256866455078125,-0.003814697265625
1758440522358321000,1.89632080078125,-0.772430419921875,-0.6237945556640625,-0.0002899169921875
1758440522368292000,1.9062919921875,-0.771575927734375,-0.6217498779296875,0.004547119140625
1758440522378262000,1.916261962890625,-0.7679595947265625,-0.623291015625,0.0052337646484375
1758440522388232000,1.92623193359375,-0.765869140625,-0.6225738525390625,0.0023193359375
1758440522398203100,1.936203125,-0.77081298828125,-0.6238250732421875,0.0033721923828125
1758440522408173000,1.946173095703125,-0.7740936279296875,-0.6236724853515625,-0.0010223388671875
1758440522418144000,1.95614404296875,-0.7770538330078125,-0.621246337890625,-0.001220703125
1758440522428114000,1.966114013671875,-0.7809295654296875,-0.618743896484375,-0.001373291015625
1758440522438085000,1.976085205078125,-0.7838897705078125,-0.62054443359375,-0.000732421875
1758440522448055000,1.986054931640625,-0.783355712890625,-0.6213226318359375,0.002044677734375
1758440522458026000,1.99602587890625,-0.7809295654296875,-0.6232757568359375,0.0013427734375
1758440522467996200,2.00599609375,-0.77276611328125,-0.621063232421875,-0.0010223388671875
1758440522477965000,2.015965087890625,-0.767578125,-0.6229705810546875,-0.0012664794921875
1758440522487936300,2.025936279296875,-0.765716552734375,-0.6262054443359375,-0.0016632080078125
1758440522497906200,2.03590625,-0.7651214599609375,-0.62396240234375,-0.0000152587890625
1758440522507877000,2.045877197265625,-0.7703399658203125,-0.623687744140625,0.0029754638671875
1758440522517847000,2.055846923828125,-0.778228759765625,-0.62445068359375,0.004302978515625
1758440522527818200,2.065818359375,-0.787078857421875,-0.622528076171875,0.004180908203125
1758440522537788200,2.0757880859375,-0.7908477783203125,-0.6197967529296875,0.0013580322265625
1758440522547758000,2.085758056640625,-0.7880096435546875,-0.618438720703125,0.0010223388671875
1758440522557729300,2.095729248046875,-0.7830810546875,-0.6188812255859375,-0.00262451171875
1758440522567699200,2.10569921875,-0.777679443359375,-0.6211090087890625,-0.0037994384765625
1758440522577670100,2.115670166015625,-0.7716827392578125,-0.6197509765625,-0.00128173828125
1758440522587640000,2.12564013671875,-0.76617431640625,-0.6187591552734375,0.0012359619140625
1758440522597611300,2.135611328125,-0.762054443359375,-0.624359130859375,0.0002288818359375
1758440522607581200,2.145581298828125,-0.760711669921875,-0.626129150390625,-0.001434326171875
1758440522617552100,2.15555224609375,-0.7674407958984375,-0.6279144287109375,0.003997802734375
1758440522627522300,2.165522216796875,-0.7758331298828125,-0.628448486328125,0.00518798828125
1758440522637493200,2.1754931640625,-0.7779388427734375,-0.6233673095703125,0.0006866455078125
1758440522647463200,2.185463134765625,-0.77935791015625,-0.619720458984375,0.0013885498046875
1758440522657433300,2.195433349609375,-0.7790679931640625,-0.6199493408203125,0.0033721923828125
1758440522667404300,2.205404296875,-0.774566650390625,-0.6192169189453125,0.00018310546875
1758440522677374200,2.215374267578125,-0.772186279296875,-0.6175079345703125,-0.0017242431640625
1758440522687345200,2.22534521484375,-0.769500732421875,-0.6180572509765625,-0.004638671875
1758440522697315300,2.2353154296875,-0.7706298828125,-0.6193389892578125,-0.003875732421875
1758440522707286000,2.2452861328125,-0.7744140625,-0.6257171630859375,-0.001220703125
1758440522717256200,2.255256103515625,-0.77886962890625,-0.6280059814453125,0.002410888671875
1758440522727227100,2.26522705078125,-0.776824951171875,-0.6255950927734375,0.0056610107421875
1758440522737197000,2.275197021484375,-0.7768707275390625,-0.6259613037109375,0.00726318359375
1758440522747167200,2.285167236328125,-0.7806243896484375,-0.6254119873046875,0.002105712890625
1758440522757138200,2.29513818359375,-0.7794342041015625,-0.62091064453125,-0.0016021728515625
1758440522767108000,2.305108154296875,-0.77435302734375,-0.618927001953125,-0.001434326171875
1758440522777079000,2.3150791015625,-0.7686004638671875,-0.62237548828125,-0.0005035400390625
1758440522787049000,2.325049072265625,-0.7682037353515625,-0.622711181640625,-0.00067138671875
1758440522797020200,2.335020263671875,-0.7696533203125,-0.6215362548828125,0.0029144287109375
1758440522806990000,2.344989990234375,-0.7716827392578125,-0.6217193603515625,-0.0007171630859375
1758440522816961000,2.3549609375,-0.770965576171875,-0.62249755859375,-0.0028839111328125
1758440522826931200,2.36493115234375,-0.7726593017578125,-0.621826171875,-0.00518798828125
1758440522836902100,2.374902099609375,-0.7730560302734375,-0.6205291748046875,-0.0068511962890625
1758440522846872000,2.3848720703125,-0.7755584716796875,-0.620452880859375,-0.0084075927734375
1758440522856842000,2.394842041015625,-0.7805023193359375,-0.6188201904296875,-0.004547119140625
1758440522866813200,2.404813232421875,-0.7855682373046875,-0.6201629638671875,0.000885009765625
1758440522876783000,2.414783203125,-0.78643798828125,-0.6234130859375,0.0013885498046875
1758440522886754300,2.42475439453125,-0.78265380859375,-0.6229248046875,0.0027008056640625
1758440522896724200,2.43472412109375,-0.7783355712890625,-0.626007080078125,0.00445556640625
1758440522906695200,2.444695068359375,-0.77410888671875,-0.6275634765625,0.0057373046875
1758440522916665000,2.4546650390625,-0.7768402099609375,-0.6269073486328125,0.0059356689453125
1758440522926636300,2.46463623046875,-0.7761688232421875,-0.6232452392578125,0.0034637451171875
1758440522936606200,2.474606201171875,-0.7765350341796875,-0.6210784912109375,-0.0013580322265625
1758440522946577200,2.4845771484375,-0.777587890625,-0.6201934814453125,-0.0039825439453125
1758440522956547300,2.49454736328125,-0.77740478515625,-0.61883544921875,-0.003662109375
1758440522966517200,2.504517333984375,-0.7769012451171875,-0.6178741455078125,-0.00250244140625
1758440522976488200,2.51448828125,-0.7737884521484375,-0.6168365478515625,-0.0048980712890625
1758440522986458000,2.5244580078125,-0.7718963623046875,-0.6168670654296875,-0.0039825439453125
1758440522996429300,2.53442919921875,-0.77142333984375,-0.619964599609375,-0.0035247802734375
1758440523006399200,2.544399169921875,-0.7708740234375,-0.6233673095703125,-0.0008392333984375
1758440523016370200,2.5543701171875,-0.77081298828125,-0.6274566650390625,0.0026397705078125
1758440523026340400,2.56434033203125,-0.7655181884765625,-0.6276397705078125,0.0026092529296875
1758440523036311000,2.57431103515625,-0.76953125,-0.6247711181640625,0.000946044921875
1758440523046281200,2.58428125,-0.7757720947265625,-0.62457275390625,0.0018157958984375
1758440523056252200,2.594252197265625,-0.780487060546875,-0.6212921142578125,0.001617431640625
1758440523066222000,2.60422216796875,-0.7854461669921875,-0.6187286376953125,0.000335693359375
1758440523076192300,2.614192138671875,-0.781890869140625,-0.61529541015625,-0.001220703125
1758440523086163000,2.624162841796875,-0.7777557373046875,-0.616302490234375,-0.00177001953125
1758440523096133000,2.634133056640625,-0.7749176025390625,-0.6198272705078125,-0.0013275146484375
1758440523106104000,2.64410400390625,-0.7750396728515625,-0.623138427734375,-0.0005645751953125
1758440523116074000,2.654073974609375,-0.7764129638671875,-0.6261138916015625,0.0007781982421875
1758440523126045200,2.664045166015625,-0.77435302734375,-0.6266021728515625,-0.001007080078125
1758440523136015000,2.67401513671875,-0.7757110595703125,-0.6251678466796875,0.00189208984375
1758440523145986000,2.683986083984375,-0.7748565673828125,-0.623016357421875,0.0007781982421875
1758440523155956200,2.693956298828125,-0.7749176025390625,-0.6180572509765625,-0.00177001953125
1758440523165927200,2.70392724609375,-0.7795257568359375,-0.6170806884765625,-0.0001373291015625
1758440523175897000,2.71389697265625,-0.78125,-0.6179351806640625,0.000701904296875
1758440523185867000,2.723866943359375,-0.7789154052734375,-0.6210784912109375,0.0006561279296875
1758440523195838200,2.733838134765625,-0.775390625,-0.62109375,-0.00018310546875
1758440523205808000,2.74380810546875,-0.77044677734375,-0.622222900390625,-0.0001068115234375
1758440523215779000,2.753779052734375,-0.7679595947265625,-0.6233673095703125,-0.00048828125
1758440523225749200,2.763749267578125,-0.7703094482421875,-0.6248016357421875,-0.0004425048828125
1758440523235720200,2.77372021484375,-0.7748870849609375,-0.6220855712890625,-0.0012969970703125
1758440523245690000,2.783690185546875,-0.776458740234375,-0.6194915771484375,0.0009307861328125
1758440523255661300,2.793661376953125,-0.772216796875,-0.620025634765625,-0.0006256103515625
1758440523265631200,2.80363134765625,-0.7747802734375,-0.619384765625,-0.0052032470703125
1758440523275602200,2.813602294921875,-0.785919189453125,-0.6234588623046875,-0.001708984375
1758440523285572000,2.823572021484375,-0.79302978515625,-0.6236114501953125,0.000335693359375
1758440523295542300,2.833542236328125,-0.7962493896484375,-0.6195220947265625,0.002716064453125
1758440523305513200,2.84351318359375,-0.7855682373046875,-0.61700439453125,-0.0026092529296875
1758440523315483100,2.853483154296875,-0.7741851806640625,-0.617431640625,-0.0035247802734375
1758440523325454300,2.863454345703125,-0.76806640625,-0.6177825927734375,-0.001129150390625
1758440523335424300,2.87342431640625,-0.7631683349609375,-0.6172637939453125,-0.001251220703125
1758440523345395200,2.883395263671875,-0.76348876953125,-0.620697021484375,-0.003021240234375
1758440523355365400,2.893365478515625,-0.764739990234375,-0.6229400634765625,-0.0029296875
1758440523365336000,2.903336181640625,-0.765045166015625,-0.6227874755859375,0.0004730224609375
1758440523375306200,2.91330615234375,-0.7691650390625,-0.620941162109375,0.001983642578125
1758440523385277200,2.923277099609375,-0.77642822265625,-0.619171142578125,-0.00079345703125
1758440523395247000,2.9332470703125,-0.7822265625,-0.6158447265625,0.00042724609375
1758440523405217300,2.94321728515625,-0.7884063720703125,-0.6157073974609375,-0.0017242431640625
1758440523415188000,2.95318798828125,-0.7923583984375,-0.61614990234375,-0.0042877197265625
1758440523425158100,2.963158203125,-0.790802001953125,-0.619140625,-0.0031890869140625
1758440523435129000,2.973129150390625,-0.78619384765625,-0.623321533203125,0.00347900390625
1758440523445099000,2.98309912109375,-0.7816314697265625,-0.627655029296875,0.004150390625
1758440523455070200,2.9930703125,-0.776763916015625,-0.62615966796875,0.0043487548828125
1758440523465040100,3.0030400390625,-0.771026611328125,-0.6215972900390625,0.0023651123046875
1758440523475011000,3.013010986328125,-0.7687225341796875,-0.61920166015625,-0.000396728515625
1758440523484981000,3.02298095703125,-0.7682952880859375,-0.619964599609375,-0.0035400390625
1758440523494952200,3.0329521484375,-0.7701416015625,-0.61883544921875,-0.0012969970703125
1758440523504922000,3.042922119140625,-0.77252197265625,-0.617584228515625,-0.00030517578125
1758440523514892000,3.05289208984375,-0.7725677490234375,-0.6166229248046875,0.000457763671875
1758440523524863200,3.06286328125,-0.7790069580078125,-0.6182861328125,-0.004913330078125
1758440523534833200,3.072833251953125,-0.78240966796875,-0.6183013916015625,-0.0067901611328125
1758440523544804000,3.08280419921875,-0.7832489013671875,-0.6151275634765625,-0.0065155029296875
1758440523554774000,3.09277392578125,-0.7859954833984375,-0.612335205078125,-0.0030670166015625
1758440523564745200,3.1027451171875,-0.783660888671875,-0.614501953125,-0.004425048828125
1758440523574715100,3.112715087890625,-0.7810516357421875,-0.6164398193359375,-0.0023651123046875
1758440523584686000,3.12268603515625,-0.77874755859375,-0.620086669921875,-0.00042724609375
1758440523594656300,3.13265625,-0.7778167724609375,-0.6238555908203125,-0.00164794921875
1758440523604627200,3.142627197265625,-0.774993896484375,-0.62579345703125,-0.0013275146484375
1758440523614597000,3.15259716796875,-0.7731781005859375,-0.625457763671875,0.0021820068359375
1758440523624567300,3.1625673828125,-0.7748870849609375,-0.6239776611328125,0.00177001953125
1758440523634538200,3.172538330078125,-0.7764129638671875,-0.6207427978515625,0.0001678466796875
1758440523644508200,3.182508056640625,-0.77850341796875,-0.6177215576171875,0.0002593994140625
1758440523654479400,3.192479248046875,-0.777984619140625,-0.616485595703125,-0.0021209716796875
1758440523664449300,3.20244921875,-0.779266357421875,-0.616943359375,-0.0028228759765625
1758440523674420200,3.212420166015625,-0.78363037109375,-0.6181640625,-0.003021240234375
1758440523684390100,3.22239013671875,-0.78155517578125,-0.6186370849609375,-0.0032806396484375
1758440523694361000,3.232361083984375,-0.7738037109375,-0.61590576171875,-0.001861572265625
1758440523704331300,3.242331298828125,-0.770477294921875,-0.6181182861328125,-0.00103759765625
1758440523714302000,3.252302001953125,-0.7719268798828125,-0.622222900390625,-0.002593994140625
1758440523724272000,3.262272216796875,-0.7720184326171875,-0.6225128173828125,-0.0026397705078125
1758440523734242300,3.2722421875,-0.7707366943359375,-0.6214447021484375,-0.002227783203125
1758440523744213000,3.282212890625,-0.773345947265625,-0.6212158203125,-0.0026092529296875
1758440523754183200,3.29218310546875,-0.7830657958984375,-0.620269775390625,-0.001983642578125
1758440523764154000,3.302154052734375,-0.788726806640625,-0.6171875,0.000030517578125
1758440523774124000,3.3121240234375,-0.78460693359375,-0.614593505859375,0.0005645751953125
1758440523784095000,3.322094970703125,-0.7765350341796875,-0.6120758056640625,0.0008392333984375
1758440523794065200,3.332065185546875,-0.7729644775390625,-0.61767578125,-0.0014495849609375
1758440523804036000,3.3420361328125,-0.7710113525390625,-0.620941162109375,-0.001007080078125
1758440523814006000,3.352006103515625,-0.77056884765625,-0.6226959228515625,-0.00238037109375
1758440523823977200,3.361977294921875,-0.7752227783203125,-0.6235504150390625,-0.0037994384765625
1758440523833947100,3.371947021484375,-0.7855987548828125,-0.621429443359375,-0.0019989013671875
1758440523843917000,3.3819169921875,-0.7931365966796875,-0.618072509765625,0.00018310546875
1758440523853888300,3.39188818359375,-0.7888641357421875,-0.614105224609375,0.0016937255859375
1758440523863858200,3.401858154296875,-0.78070068359375,-0.6144561767578125,0.0040435791015625
1758440523873829000,3.4118291015625,-0.7747955322265625,-0.617523193359375,0
1758440523883799000,3.421799072265625,-0.7725372314453125,-0.6199798583984375,-0.0043487548828125
1758440523893770200,3.431770263671875,-0.7705230712890625,-0.6217041015625,-0.003631591796875
1758440523903740200,3.441740234375,-0.771636962890625,-0.622802734375,-0.0045928955078125
1758440523913711000,3.451711181640625,-0.77423095703125,-0.621978759765625,-0.0031585693359375
1758440523923681300,3.461681396484375,-0.7746429443359375,-0.61981201171875,0.0003662109375
1758440523933652200,3.47165234375,-0.7780914306640625,-0.61859130859375,0.001739501953125
1758440523943622100,3.4816220703125,-0.7752532958984375,-0.617706298828125,0.0015106201171875
1758440523953592000,3.491592041015625,-0.775848388671875,-0.6193695068359375,0.0008087158203125
1758440523963563300,3.501563232421875,-0.777557373046875,-0.618682861328125,-0.0015716552734375
1758440523973533200,3.511533203125,-0.78021240234375,-0.6201019287109375,-0.00439453125
1758440523983504100,3.521504150390625,-0.785308837890625,-0.621795654296875,-0.002105712890625
1758440523993474300,3.531474365234375,-0.785064697265625,-0.621429443359375,-0.002410888671875
1758440524003445200,3.5414453125,-0.7791290283203125,-0.6174163818359375,-0.000274658203125
1758440524013415200,3.551415283203125,-0.7744293212890625,-0.61773681640625,0.0013275146484375
1758440524023386400,3.561386474609375,-0.775299072265625,-0.618988037109375,-0.0001983642578125
1758440524033356300,3.571356201171875,-0.7746734619140625,-0.6162109375,-0.00146484375
1758440524043327000,3.581326904296875,-0.7730712890625,-0.6163177490234375,-0.0040130615234375
1758440524053297200,3.591297119140625,-0.7764129638671875,-0.618072509765625,-0.007781982421875
1758440524063267300,3.601267333984375,-0.7752227783203125,-0.6198883056640625,-0.006561279296875
1758440524073238000,3.611238037109375,-0.77362060546875,-0.6180267333984375,-0.002960205078125
1758440524083208200,3.621208251953125,-0.7755279541015625,-0.6222686767578125,-0.0015716552734375
1758440524093179100,3.63117919921875,-0.7778167724609375,-0.6219940185546875,0.001129150390625
1758440524103149000,3.641149169921875,-0.7760162353515625,-0.6191558837890625,0.000640869140625
1758440524113120000,3.6511201171875,-0.7748565673828125,-0.6144256591796875,-0.001068115234375
1758440524123090200,3.661090087890625,-0.780670166015625,-0.6143798828125,-0.0030059814453125
1758440524133061000,3.67106103515625,-0.7873077392578125,-0.6182403564453125,-0.0029449462890625
1758440524143031000,3.681031005859375,-0.7919464111328125,-0.623077392578125,0.0018310546875
1758440524153002200,3.691002197265625,-0.7896575927734375,-0.622344970703125,0.00439453125
1758440524162972200,3.70097216796875,-0.7864227294921875,-0.62152099609375,0.0012359619140625
1758440524172942000,3.710942138671875,-0.77947998046875,-0.620849609375,-0.001678466796875
1758440524182913000,3.7209130859375,-0.7686920166015625,-0.618316650390625,-0.0010986328125
1758440524192883200,3.73088330078125,-0.7604522705078125,-0.6169586181640625,-0.003326416015625
1758440524202854100,3.740854248046875,-0.7579345703125,-0.617034912109375,-0.003631591796875
1758440524212824000,3.750823974609375,-0.758941650390625,-0.617767333984375,-0.0048065185546875
1758440524222795300,3.760795166015625,-0.770050048828125,-0.6192169189453125,-0.006195068359375
1758440524232765200,3.77076513671875,-0.78515625,-0.6182098388671875,-0.0048828125
1758440524242736000,3.780736083984375,-0.7973175048828125,-0.61517333984375,-0.003997802734375
1758440524252706000,3.7907060546875,-0.7971649169921875,-0.6140289306640625,-0.00177001953125
1758440524262677200,3.80067724609375,-0.7890167236328125,-0.615020751953125,-0.0007781982421875
1758440524272647200,3.810647216796875,-0.7764739990234375,-0.61712646484375,-0.0009765625
1758440524282617000,3.8206171875,-0.7712249755859375,-0.6198883056640625,-0.0021820068359375
1758440524292588300,3.83058837890625,-0.7727203369140625,-0.621185302734375,-0.0030975341796875
1758440524302558200,3.84055810546875,-0.77899169921875,-0.621185302734375,-0.0034942626953125
1758440524312529200,3.850529052734375,-0.781951904296875,-0.6223602294921875,-0.0016021728515625
1758440524322499300,3.860499267578125,-0.7837677001953125,-0.6232757568359375,0.00091552734375
1758440524332470300,3.87047021484375,-0.7849273681640625,-0.620819091796875,0.004669189453125
1758440524342440200,3.880440185546875,-0.7835693359375,-0.617950439453125,0.0036163330078125
1758440524352411400,3.890411376953125,-0.7762908935546875,-0.61376953125,-0.0001983642578125
1758440524362381300,3.90038134765625,-0.77227783203125,-0.612335205078125,-0.0047760009765625
1758440524372352000,3.91035205078125,-0.78045654296875,-0.6147308349609375,-0.0113067626953125
1758440524382322200,3.920322265625,-0.7839508056640625,-0.615509033203125,-0.011749267578125
1758440524392293000,3.930293212890625,-0.7848358154296875,-0.61309814453125,-0.0058441162109375
1758440524402263000,3.940262939453125,-0.77874755859375,-0.6144561767578125,-0.0008697509765625
1758440524412233200,3.950233154296875,-0.773406982421875,-0.6211395263671875,0.0012969970703125
1758440524422204200,3.9602041015625,-0.7696685791015625,-0.6233673095703125,0.003448486328125
1758440524432174000,3.970174072265625,-0.766143798828125,-0.623443603515625,0.00048828125
1758440524442145000,3.98014501953125,-0.7689208984375,-0.62139892578125,-0.0043182373046875
1758440524452115000,3.990114990234375,-0.777374267578125,-0.6212158203125,-0.007781982421875
1758440524462086100,4.000086181640625,-0.7823486328125,-0.61572265625,-0.00482177734375
1758440524472056000,4.01005615234375,-0.7840118408203125,-0.6128082275390625,0.000213623046875
1758440524482027000,4.020027099609375,-0.78460693359375,-0.61370849609375,0.0028839111328125
1758440524491997000,4.029996826171875,-0.7833404541015625,-0.6144866943359375,0.0031890869140625
1758440524501968100,4.039968017578125,-0.7818450927734375,-0.6158294677734375,0.0009307861328125
1758440524511938000,4.04993798828125,-0.7796783447265625,-0.6183929443359375,-0.0021820068359375
1758440524521908000,4.059907958984375,-0.776458740234375,-0.6195068359375,-0.005157470703125
1758440524531879000,4.06987890625,-0.7773284912109375,-0.6175079345703125,-0.0027923583984375
1758440524541849000,4.07984912109375,-0.779693603515625,-0.6197357177734375,0.0006256103515625
1758440524551820000,4.089820068359375,-0.7773895263671875,-0.620025634765625,-0.0002593994140625
1758440524561790000,4.0997900390625,-0.7763519287109375,-0.6186065673828125,-0.000030517578125
1758440524571761200,4.10976123046875,-0.7787628173828125,-0.61871337890625,-0.0006561279296875
1758440524581731000,4.11973095703125,-0.7800445556640625,-0.6158599853515625,-0.0019989013671875
1758440524591702000,4.129701904296875,-0.7791900634765625,-0.6167449951171875,-0.00341796875
1758440524601672000,4.139671875,-0.7810516357421875,-0.6154327392578125,-0.0042572021484375
1758440524611643100,4.14964306640625,-0.780792236328125,-0.614410400390625,-0.0042266845703125
1758440524621613000,4.159613037109375,-0.7796478271484375,-0.6171417236328125,-0.0037689208984375
1758440524631584000,4.169583984375,-0.7802886962890625,-0.6150054931640625,-0.0009307861328125
1758440524641554200,4.17955419921875,-0.7788543701171875,-0.6132354736328125,-0.0006866455078125
1758440524651524000,4.189524169921875,-0.781768798828125,-0.616607666015625,0.000244140625
1758440524661495000,4.1994951171875,-0.784912109375,-0.6198577880859375,-0.000274658203125
1758440524671465000,4.20946484375,-0.781463623046875,-0.618438720703125,-0.0018768310546875
1758440524681436200,4.219436279296875,-0.7762908935546875,-0.616119384765625,-0.000762939453125
1758440524691406800,4.22940673828125,-0.77337646484375,-0.617462158203125,-0.0015106201171875
1758440524701377000,4.239376953125,-0.77874755859375,-0.616790771484375,-0.0001068115234375
1758440524711347200,4.24934716796875,-0.780181884765625,-0.6142120361328125,0.0012969970703125
1758440524721318000,4.25931787109375,-0.7831268310546875,-0.6151275634765625,0.0001220703125
1758440524731288000,4.2692880859375,-0.7842864990234375,-0.6192169189453125,-0.001556396484375
1758440524741259000,4.279259033203125,-0.785797119140625,-0.618988037109375,-0.0109405517578125
1758440524751229000,4.28922900390625,-0.7830963134765625,-0.61529541015625,-0.003631591796875
1758440524761199900,4.299199951171875,-0.7762603759765625,-0.6154937744140625,0.00341796875
1758440524771170000,4.309170166015625,-0.771331787109375,-0.6175537109375,-0.00238037109375
1758440524781141000,4.31914111328125,-0.7692108154296875,-0.61590576171875,-0.0041046142578125
1758440524791111000,4.32911083984375,-0.7749786376953125,-0.6131439208984375,-0.0013885498046875
1758440524801082000,4.33908203125,-0.7825927734375,-0.61370849609375,0.0004425048828125
1758440524811052000,4.349052001953125,-0.7908172607421875,-0.6153106689453125,-0.002288818359375
1758440524821023000,4.35902294921875,-0.7937164306640625,-0.6179962158203125,-0.0034027099609375
1758440524830993000,4.368992919921875,-0.7897796630859375,-0.6199798583984375,-0.0019683837890625
1758440524840963000,4.378963134765625,-0.781707763671875,-0.6232452392578125,-0.0018768310546875
1758440524850934000,4.38893408203125,-0.770721435546875,-0.622314453125,-0.001129150390625
1758440524860904000,4.398904052734375,-0.7592620849609375,-0.616973876953125,0.0012054443359375
1758440524870875100,4.408875244140625,-0.756683349609375,-0.6125335693359375,0.000091552734375
1758440524880845000,4.418844970703125,-0.7659454345703125,-0.6143341064453125,-0.00439453125
1758440524890816000,4.42881591796875,-0.777130126953125,-0.61468505859375,-0.00677490234375
1758440524900786000,4.438785888671875,-0.7865447998046875,-0.61273193359375,-0.0050048828125
1758440524910757000,4.448757080078125,-0.7916107177734375,-0.612762451171875,-0.0032806396484375
1758440524920727000,4.45872705078125,-0.790191650390625,-0.6155548095703125,-0.0024871826171875
1758440524930698000,4.468697998046875,-0.78717041015625,-0.6163482666015625,-0.0001678466796875
1758440524940668200,4.478668212890625,-0.784271240234375,-0.618499755859375,-0.00006103515625
1758440524950639000,4.48863916015625,-0.7815093994140625,-0.61712646484375,-0.0021514892578125
1758440524960609000,4.498609130859375,-0.783447265625,-0.6174468994140625,-0.0034027099609375
1758440524970579200,4.5085791015625,-0.78082275390625,-0.61798095703125,-0.0034332275390625
1758440524980550100,4.518550048828125,-0.7790985107421875,-0.6188507080078125,-0.0009765625
1758440524990520000,4.52852001953125,-0.7763671875,-0.6189422607421875,0.0015869140625
1758440525000491300,4.5384912109375,-0.7742156982421875,-0.6195068359375,0.0003509521484375
1758440525010461200,4.548461181640625,-0.7733306884765625,-0.61798095703125,-0.0017547607421875
1758440525020432000,4.558431884765625,-0.7767791748046875,-0.616119384765625,-0.0008697509765625
1758440525030402000,4.568402099609375,-0.7831268310546875,-0.617919921875,-0.00042724609375
1758440525040373000,4.578373046875,-0.791168212890625,-0.6181640625,-0.00299072265625
1758440525050343000,4.588343017578125,-0.79345703125,-0.6136322021484375,-0.0047454833984375
1758440525060313900,4.59831396484375,-0.7876434326171875,-0.609222412109375,-0.0034027099609375
1758440525070284000,4.608283935546875,-0.7784881591796875,-0.6102142333984375,-0.0018768310546875
1758440525080255000,4.6182548828125,-0.7712860107421875,-0.613861083984375,0.0002593994140625
1758440525090225000,4.628224853515625,-0.7678680419921875,-0.6163330078125,-0.0003509521484375
1758440525100194800,4.63819482421875,-0.7684326171875,-0.618408203125,-0.001922607421875
1758440525110166000,4.648166015625,-0.775482177734375,-0.6216888427734375,-0.003448486328125
1758440525120136000,4.658135986328125,-0.7838287353515625,-0.6231689453125,-0.0034942626953125
1758440525130107000,4.66810693359375,-0.7858123779296875,-0.62030029296875,-0.0007171630859375
1758440525140077000,4.6780771484375,-0.7849578857421875,-0.6181182861328125,0.0003204345703125
1758440525150048000,4.688048095703125,-0.7806243896484375,-0.617401123046875,-0.0001373291015625
1758440525160018000,4.698017822265625,-0.776397705078125,-0.614593505859375,-0.0026702880859375
1758440525169989000,4.707989013671875,-0.770233154296875,-0.6130523681640625,-0.002655029296875
1758440525179959000,4.717958984375,-0.7678680419921875,-0.6123504638671875,-0.0020294189453125
1758440525189930000,4.727929931640625,-0.7717437744140625,-0.6132659912109375,-0.001953125
1758440525199900200,4.737900146484375,-0.7789764404296875,-0.6173248291015625,-0.00299072265625
1758440525209871000,4.74787109375,-0.7879638671875,-0.6179351806640625,-0.000823974609375
1758440525219841000,4.757841064453125,-0.7905120849609375,-0.620361328125,-0.003082275390625
1758440525229811000,4.76781103515625,-0.786346435546875,-0.6203765869140625,-0.0006866455078125
1758440525239782100,4.7777822265625,-0.7776641845703125,-0.6211090087890625,-0.0001068115234375
1758440525249752000,4.787751953125,-0.7718658447265625,-0.619293212890625,-0.0006103515625
1758440525259723000,4.797722900390625,-0.7717437744140625,-0.61822509765625,0.0010833740234375
1758440525269693200,4.807693115234375,-0.7771759033203125,-0.617645263671875,-0.0002593994140625
1758440525279664000,4.8176640625,-0.7757720947265625,-0.616607666015625,-0.0023651123046875
1758440525289634000,4.827634033203125,-0.7771148681640625,-0.6151885986328125,-0.002960205078125
1758440525299605200,4.837605224609375,-0.7790374755859375,-0.61737060546875,-0.0019073486328125
1758440525309575200,4.8475751953125,-0.7834625244140625,-0.6190338134765625,-0.0014495849609375
1758440525319546000,4.857546142578125,-0.7871856689453125,-0.615264892578125,-0.0016632080078125
1758440525329516000,4.86751611328125,-0.7841033935546875,-0.61419677734375,-0.0025787353515625
1758440525339487000,4.877487060546875,-0.777862548828125,-0.614776611328125,-0.003509521484375
1758440525349457200,4.88745703125,-0.7809295654296875,-0.6187896728515625,-0.0031585693359375
1758440525359427000,4.897427001953125,-0.783294677734375,-0.6189117431640625,-0.003997802734375
1758440525369398000,4.90739794921875,-0.78033447265625,-0.61383056640625,-0.0025787353515625
1758440525379368200,4.9173681640625,-0.7822113037109375,-0.615814208984375,-0.0037689208984375
1758440525389339000,4.9273388671875,-0.78302001953125,-0.6207427978515625,-0.00421142578125
1758440525399308800,4.937308837890625,-0.7814178466796875,-0.6221923828125,-0.002227783203125
1758440525409280000,4.947280029296875,-0.778045654296875,-0.6207427978515625,0.00335693359375
1758440525419250000,4.95725,-0.7687530517578125,-0.6190185546875,0.002593994140625
1758440525429220900,4.967220947265625,-0.7628021240234375,-0.6159515380859375,0.0020751953125
1758440525439191000,4.97719091796875,-0.767059326171875,-0.615020751953125,0.0006256103515625
1758440525449162000,4.987161865234375,-0.7770233154296875,-0.6158599853515625,-0.0000152587890625
1758440525459132000,4.9971318359375,-0.785797119140625,-0.615081787109375,-0.0030517578125
1758440525469103000,5.00710302734375,-0.7908935546875,-0.6134185791015625,-0.0041351318359375
1758440525479073000,5.017072998046875,-0.7955474853515625,-0.614227294921875,-0.0055694580078125
1758440525489044500,5.02704443359375,-0.79541015625,-0.6155853271484375,-0.00848388671875
1758440525499014400,5.037014404296875,-0.7930145263671875,-0.6148681640625,-0.0069122314453125
1758440525508984300,5.046984375,-0.7856292724609375,-0.6200714111328125,-0.0054931640625
1758440525518955500,5.05695556640625,-0.776763916015625,-0.624114990234375,-0.003021240234375
1758440525528925400,5.066925537109375,-0.7723388671875,-0.623870849609375,-0.0001220703125
1758440525538896400,5.076896484375,-0.7648162841796875,-0.6177520751953125,0.002197265625
1758440525548866600,5.086866455078125,-0.76312255859375,-0.6147003173828125,0.0024566650390625
1758440525558837500,5.09683740234375,-0.76904296875,-0.6186676025390625,0.0012969970703125
1758440525568807400,5.106807373046875,-0.7724761962890625,-0.61810302734375,-0.00177001953125
1758440525578778600,5.116778564453125,-0.778961181640625,-0.614593505859375,-0.00244140625
1758440525588748500,5.12674853515625,-0.7838592529296875,-0.6121368408203125,-0.00311279296875
1758440525598719200,5.13671923828125,-0.783935546875,-0.6129302978515625,-0.0034027099609375
1758440525608689400,5.146689453125,-0.7817230224609375,-0.61480712890625,-0.003936767578125
1758440525618660400,5.156660400390625,-0.7803497314453125,-0.6166229248046875,-0.004791259765625
1758440525628630300,5.16663037109375,-0.77789306640625,-0.6196136474609375,-0.00628662109375
1758440525638600400,5.176600341796875,-0.7747039794921875,-0.6223602294921875,-0.003631591796875
1758440525648571400,5.1865712890625,-0.776153564453125,-0.6226348876953125,-0.002685546875
1758440525658541600,5.19654150390625,-0.781646728515625,-0.6208953857421875,0.0028533935546875
1758440525668512300,5.20651220703125,-0.784027099609375,-0.620391845703125,0.0037994384765625
1758440525678482200,5.216482177734375,-0.7823944091796875,-0.6157684326171875,0.0018310546875
1758440525688453400,5.226453369140625,-0.7838592529296875,-0.617401123046875,-0.00201416015625
1758440525698423300,5.23642333984375,-0.786712646484375,-0.6173858642578125,-0.004791259765625
1758440525708394500,5.24639453125,-0.7877349853515625,-0.61322021484375,-0.006256103515625
1758440525718364400,5.256364501953125,-0.788543701171875,-0.612152099609375,-0.0054931640625
1758440525728335400,5.26633544921875,-0.782501220703125,-0.61187744140625,-0.0060577392578125
1758440525738305300,5.27630517578125,-0.7728424072265625,-0.6129150390625,-0.0032196044921875
1758440525748276500,5.2862763671875,-0.7653961181640625,-0.6133880615234375,-0.00079345703125
1758440525758246400,5.296246337890625,-0.7693939208984375,-0.614959716796875,-0.000457763671875
1758440525768217300,5.30621728515625,-0.775604248046875,-0.61834716796875,-0.0048065185546875
1758440525778187500,5.3161875,-0.780517578125,-0.61712646484375,-0.0057525634765625
1758440525788157400,5.326157470703125,-0.785125732421875,-0.620941162109375,-0.00103759765625
1758440525798128400,5.33612841796875,-0.7847747802734375,-0.6247711181640625,0.0011749267578125
1758440525808098300,5.346098388671875,-0.7780303955078125,-0.6238861083984375,0.0005645751953125
1758440525818069500,5.356069580078125,-0.7723388671875,-0.6216583251953125,0.0025482177734375
1758440525828039400,5.366039306640625,-0.7671661376953125,-0.6179656982421875,0.0005645751953125
1758440525838010400,5.37601025390625,-0.7682952880859375,-0.614959716796875,-0.002593994140625
1758440525847980500,5.38598046875,-0.77459716796875,-0.613800048828125,-0.0038909912109375
1758440525857951500,5.395951416015625,-0.783111572265625,-0.6131591796875,-0.0045623779296875
1758440525867921400,5.40592138671875,-0.7882232666015625,-0.6149139404296875,-0.0031585693359375
1758440525877892600,5.415892578125,-0.787139892578125,-0.6176910400390625,-0.000762939453125
1758440525887862500,5.425862548828125,-0.780548095703125,-0.62213134765625,0.001708984375
1758440525897833500,5.43583349609375,-0.773468017578125,-0.6213531494140625,-0.0013580322265625
1758440525907803400,5.445803466796875,-0.7721710205078125,-0.620391845703125,-0.0043487548828125
1758440525917774300,5.4557744140625,-0.7773895263671875,-0.6178436279296875,-0.006561279296875
1758440525927744500,5.46574462890625,-0.7816619873046875,-0.616455078125,-0.005889892578125
1758440525937714400,5.47571435546875,-0.78271484375,-0.6157379150390625,-0.0036468505859375
1758440525947685400,5.485685302734375,-0.781646728515625,-0.615936279296875,-0.0012664794921875
1758440525957655600,5.495655517578125,-0.775054931640625,-0.618804931640625,-0.0019073486328125
1758440525967626200,5.505626220703125,-0.7718353271484375,-0.6208648681640625,-0.0008697509765625
1758440525977596400,5.515596435546875,-0.7711334228515625,-0.6211700439453125,0.0003814697265625
1758440525987567400,5.5255673828125,-0.77252197265625,-0.6214752197265625,0.0001068115234375
1758440525997537300,5.535537353515625,-0.7769622802734375,-0.622222900390625,-0.0016937255859375
1758440526007508500,5.545508544921875,-0.7832183837890625,-0.61822509765625,-0.0027313232421875
1758440526017478400,5.555478515625,-0.7881317138671875,-0.6154632568359375,-0.0029754638671875
1758440526027449300,5.565449462890625,-0.7892303466796875,-0.6159210205078125,-0.003326416015625
1758440526037419300,5.575419189453125,-0.789215087890625,-0.618896484375,-0.003631591796875
1758440526047390500,5.585390380859375,-0.7838134765625,-0.61712646484375,-0.0030364990234375
1758440526057360400,5.5953603515625,-0.7781219482421875,-0.6172027587890625,-0.001434326171875
1758440526067331300,5.605331298828125,-0.7707061767578125,-0.6196441650390625,-0.001708984375
1758440526077301500,5.615301513671875,-0.767120361328125,-0.618438720703125,-0.00091552734375
1758440526087272400,5.6252724609375,-0.77020263671875,-0.6177825927734375,-0.0010986328125
1758440526097242400,5.635242431640625,-0.7751617431640625,-0.617156982421875,-0.0045013427734375
1758440526107212300,5.64521240234375,-0.7826690673828125,-0.61785888671875,-0.0086822509765625
1758440526117183500,5.65518359375,-0.7896881103515625,-0.6187744140625,-0.0072174072265625
1758440526127153400,5.6651533203125,-0.785980224609375,-0.620147705078125,-0.0000762939453125
1758440526137124400,5.675124267578125,-0.7778167724609375,-0.6165924072265625,0.00177001953125
1758440526147094500,5.685094482421875,-0.7747955322265625,-0.6177978515625,0.00439453125
1758440526157065500,5.6950654296875,-0.7749481201171875,-0.61871337890625,0.0006561279296875
1758440526167035400,5.705035400390625,-0.7781982421875,-0.6189117431640625,-0.0038299560546875
1758440526177006600,5.715006591796875,-0.7795562744140625,-0.6183013916015625,-0.0058135986328125
1758440526186976500,5.7249765625,-0.7801971435546875,-0.6208343505859375,-0.00604248046875
1758440526196947500,5.734947509765625,-0.776397705078125,-0.6225128173828125,-0.0009918212890625
1758440526206917600,5.744917724609375,-0.7723236083984375,-0.6207733154296875,0.002532958984375
1758440526216888300,5.754888427734375,-0.766693115234375,-0.61920166015625,0.0009002685546875
1758440526226858500,5.7648583984375,-0.766876220703125,-0.61956787109375,-0.001007080078125
1758440526236829400,5.774829345703125,-0.768341064453125,-0.621337890625,-0.0052032470703125
1758440526246799400,5.78479931640625,-0.7765350341796875,-0.616973876953125,-0.0060882568359375
1758440526256769500,5.79476953125,-0.7834320068359375,-0.61212158203125,-0.00537109375
1758440526266740200,5.804740234375,-0.7869110107421875,-0.6114959716796875,-0.006195068359375
1758440526276710400,5.81471044921875,-0.7862548828125,-0.6149749755859375,-0.002593994140625
1758440526286681300,5.824681396484375,-0.784515380859375,-0.6160736083984375,-0.001068115234375
1758440526296651300,5.8346513671875,-0.779632568359375,-0.61810302734375,-0.0037994384765625
1758440526306622500,5.84462255859375,-0.778656005859375,-0.6217498779296875,-0.003448486328125
1758440526316592400,5.85459228515625,-0.779876708984375,-0.621185302734375,-0.00262451171875
1758440526326563300,5.864563232421875,-0.7779541015625,-0.6218719482421875,-0.0010223388671875
1758440526336533200,5.874533203125,-0.77972412109375,-0.62506103515625,0.001495361328125
1758440526346504400,5.88450439453125,-0.7768096923828125,-0.623077392578125,0.0016326904296875
1758440526356474400,5.894474365234375,-0.77490234375,-0.6210174560546875,-0.0000457763671875
1758440526366445300,5.9044453125,-0.7746124267578125,-0.6236724853515625,-0.0005950927734375
1758440526376415500,5.91441552734375,-0.7781982421875,-0.6251983642578125,0
1758440526386386400,5.924386474609375,-0.78424072265625,-0.6237945556640625,-0.0001983642578125
1758440526396356400,5.9343564453125,-0.7828369140625,-0.6161956787109375,-0.0018310546875
1758440526406327600,5.94432763671875,-0.7703857421875,-0.6103515625,-0.0042877197265625
1758440526416297500,5.95429736328125,-0.7692413330078125,-0.6116180419921875,-0.0068206787109375
1758440526426267400,5.964267333984375,-0.7750396728515625,-0.6183929443359375,-0.0058135986328125
1758440526436238600,5.974238525390625,-0.780242919921875,-0.62066650390625,-0.0060577392578125
1758440526446208500,5.98420849609375,-0.780029296875,-0.619964599609375,-0.004180908203125
1758440526456179500,5.994179443359375,-0.777496337890625,-0.6205596923828125,-0.0027008056640625
1758440526466149400,6.0041494140625,-0.7726898193359375,-0.6236114501953125,-0.0044097900390625
1758440526476120600,6.01412060546875,-0.7646636962890625,-0.6254425048828125,-0.004302978515625
1758440526486090200,6.02409033203125,-0.7607421875,-0.6234283447265625,-0.001007080078125
1758440526496061200,6.034061279296875,-0.7629241943359375,-0.61883544921875,0.0009765625
1758440526506031400,6.04403125,-0.77301025390625,-0.6160736083984375,0.0006561279296875
1758440526516002300,6.054002197265625,-0.782684326171875,-0.618255615234375,-0.00164794921875
1758440526525972200,6.06397216796875,-0.7893524169921875,-0.618682861328125,-0.001434326171875
1758440526535943200,6.073943115234375,-0.7930450439453125,-0.617431640625,-0.0028839111328125
1758440526545913300,6.083913330078125,-0.789581298828125,-0.6179656982421875,-0.0031890869140625
1758440526555884000,6.093884033203125,-0.784912109375,-0.619598388671875,-0.0035247802734375
1758440526565854000,6.10385400390625,-0.7782745361328125,-0.6203460693359375,-0.00250244140625
1758440526575825200,6.1138251953125,-0.773345947265625,-0.6170654296875,-0.0025787353515625
1758440526585795000,6.123795166015625,-0.7726898193359375,-0.6159210205078125,-0.0034027099609375
1758440526595765000,6.133764892578125,-0.7741851806640625,-0.620025634765625,-0.0008544921875
1758440526605736200,6.143736083984375,-0.77203369140625,-0.622802734375,-0.0033721923828125
1758440526615706000,6.1537060546875,-0.7720794677734375,-0.622955322265625,-0.0047607421875
1758440526625677000,6.163677001953125,-0.77557373046875,-0.6223907470703125,-0.00323486328125
1758440526635647000,6.17364697265625,-0.7783660888671875,-0.62322998046875,-0.003662109375
1758440526645618200,6.1836181640625,-0.77984619140625,-0.6195831298828125,-0.001800537109375
1758440526655588000,6.193588134765625,-0.78045654296875,-0.616302490234375,-0.0018310546875
1758440526665559000,6.20355908203125,-0.7753448486328125,-0.616180419921875,-0.00238037109375
1758440526675529200,6.213529296875,-0.7716064453125,-0.61663818359375,-0.0043792724609375
1758440526685500200,6.223500244140625,-0.7735595703125,-0.6193695068359375,-0.00408935546875
1758440526695470000,6.233469970703125,-0.777984619140625,-0.6212158203125,-0.0060272216796875
1758440526705441300,6.243441162109375,-0.782440185546875,-0.6208343505859375,-0.00347900390625
1758440526715411200,6.2534111328125,-0.7855072021484375,-0.6225738525390625,-0.00244140625
1758440526725382100,6.263382080078125,-0.7861480712890625,-0.6203155517578125,-0.0027008056640625
1758440526735352000,6.27335205078125,-0.7808074951171875,-0.61798095703125,-0.00396728515625
1758440526745323300,6.2833232421875,-0.7725372314453125,-0.615234375,-0.00384521484375
1758440526755293200,6.293293212890625,-0.767547607421875,-0.61883544921875,-0.00494384765625
1758440526765264400,6.303264404296875,-0.7671356201171875,-0.6212158203125,-0.00506591796875
1758440526775234300,6.313234375,-0.7701873779296875,-0.62158203125,-0.0037994384765625
1758440526785204200,6.323204345703125,-0.7746124267578125,-0.6233062744140625,-0.003326416015625
1758440526795175200,6.333175048828125,-0.780487060546875,-0.622344970703125,-0.0021209716796875
1758440526805145300,6.343145263671875,-0.782989501953125,-0.6218109130859375,-0.0011444091796875
1758440526815116300,6.3531162109375,-0.78106689453125,-0.6192626953125,-0.0018310546875
1758440526825086200,6.363086181640625,-0.780975341796875,-0.617767333984375,-0.0060577392578125
1758440526835057200,6.37305712890625,-0.7828521728515625,-0.6150054931640625,-0.0092315673828125
1758440526845027300,6.38302734375,-0.7859344482421875,-0.6138153076171875,-0.007415771484375
1758440526854998000,6.392998046875,-0.7890625,-0.61907958984375,-0.0045166015625
1758440526864968000,6.402968017578125,-0.7888336181640625,-0.6271209716796875,-0.0028228759765625
1758440526874939100,6.412939208984375,-0.7864837646484375,-0.6264495849609375,-0.0008544921875
1758440526884909000,6.422908935546875,-0.777801513671875,-0.623291015625,0.0015716552734375
1758440526894880000,6.4328798828125,-0.766326904296875,-0.62109375,0.00244140625
1758440526904850200,6.44285009765625,-0.7597503662109375,-0.6198883056640625,-0.001678466796875
1758440526914821000,6.452821044921875,-0.7590789794921875,-0.6202392578125,-0.0049896240234375
1758440526924791000,6.462791015625,-0.76416015625,-0.6181488037109375,-0.00518798828125
1758440526934762200,6.47276220703125,-0.77227783203125,-0.6159210205078125,-0.006256103515625
1758440526944732200,6.482732177734375,-0.7797088623046875,-0.6190948486328125,-0.003387451171875
1758440526954703000,6.492703125,-0.78338623046875,-0.6210174560546875,-0.002349853515625
1758440526964673000,6.502673095703125,-0.782928466796875,-0.6221160888671875,-0.0045623779296875
1758440526974644200,6.512644287109375,-0.7784271240234375,-0.61749267578125,-0.0076141357421875
1758440526984614100,6.5226142578125,-0.7776336669921875,-0.6165008544921875,-0.0083770751953125
1758440526994584000,6.532583984375,-0.7802886962890625,-0.6180419921875,-0.009185791015625
1758440527004555300,6.54255517578125,-0.779327392578125,-0.6173095703125,-0.007354736328125
1758440527014525200,6.552525146484375,-0.7809600830078125,-0.61932373046875,-0.0033111572265625
1758440527024496000,6.56249609375,-0.776397705078125,-0.62249755859375,-0.0011749267578125
1758440527034466300,6.57246630859375,-0.7754669189453125,-0.6251678466796875,0.0001068115234375
1758440527044437200,6.582437255859375,-0.77996826171875,-0.62530517578125,-0.00042724609375
1758440527054407200,6.5924072265625,-0.7844085693359375,-0.6237945556640625,-0.0005035400390625
1758440527064378400,6.60237841796875,-0.782562255859375,-0.6199493408203125,-0.000701904296875
1758440527074348300,6.612348388671875,-0.780975341796875,-0.6134796142578125,-0.002655029296875
1758440527084319200,6.6223193359375,-0.7819366455078125,-0.6132049560546875,-0.003326416015625
1758440527094289200,6.6322890625,-0.77545166015625,-0.61383056640625,-0.00628662109375
1758440527104260000,6.642260009765625,-0.771331787109375,-0.6159820556640625,-0.0073699951171875
1758440527114230300,6.652230224609375,-0.77191162109375,-0.6213836669921875,-0.0060882568359375
1758440527124201000,6.662200927734375,-0.775054931640625,-0.6236419677734375,-0.0056915283203125
1758440527134171100,6.672171142578125,-0.775054931640625,-0.62347412109375,-0.0033721923828125
1758440527144142000,6.68214208984375,-0.776336669921875,-0.6221923828125,-0.00299072265625
1758440527154112000,6.692112060546875,-0.77630615234375,-0.624725341796875,-0.0037078857421875
1758440527164083200,6.702083251953125,-0.7774658203125,-0.6212310791015625,-0.0023193359375
1758440527174053000,6.71205322265625,-0.781219482421875,-0.621063232421875,-0.003265380859375
1758440527184023000,6.72202294921875,-0.785430908203125,-0.61834716796875,-0.0041046142578125
1758440527193994000,6.731993896484375,-0.7886810302734375,-0.6146392822265625,-0.0033416748046875
1758440527203964200,6.741964111328125,-0.7882232666015625,-0.61480712890625,-0.0019378662109375
1758440527213935000,6.75193505859375,-0.7863311767578125,-0.616241455078125,-0.0005340576171875
1758440527223905000,6.761905029296875,-0.7802581787109375,-0.6185455322265625,-0.0000762939453125
1758440527233876200,6.771876220703125,-0.7740325927734375,-0.6201324462890625,-0.002349853515625
1758440527243846100,6.78184619140625,-0.7718505859375,-0.62408447265625,-0.0048980712890625
1758440527253817000,6.791817138671875,-0.7704620361328125,-0.6219940185546875,-0.006866455078125
1758440527263787300,6.801787353515625,-0.7704315185546875,-0.6194610595703125,-0.0064544677734375
1758440527273758200,6.81175830078125,-0.7697601318359375,-0.621429443359375,-0.007232666015625
1758440527283728100,6.82172802734375,-0.7715301513671875,-0.6219329833984375,-0.0060882568359375
1758440527293699300,6.83169921875,-0.7707977294921875,-0.6188812255859375,-0.003997802734375
1758440527303669200,6.841669189453125,-0.7723541259765625,-0.6190338134765625,-0.004180908203125
1758440527313640200,6.85164013671875,-0.773101806640625,-0.6190643310546875,-0.0033416748046875
1758440527323610000,6.861610107421875,-0.7753143310546875,-0.62158203125,-0.0038299560546875
1758440527333581300,6.871581298828125,-0.7774810791015625,-0.6194000244140625,-0.0062103271484375
1758440527343551200,6.88155126953125,-0.7777862548828125,-0.6212615966796875,-0.0064239501953125
1758440527353522200,6.891522216796875,-0.77801513671875,-0.62298583984375,-0.002410888671875
1758440527363492400,6.901492431640625,-0.7792510986328125,-0.6227569580078125,-0.0014190673828125
1758440527373463000,6.911463134765625,-0.77740478515625,-0.6207122802734375,-0.0020294189453125
1758440527383433200,6.92143310546875,-0.7741241455078125,-0.617034912109375,-0.0030517578125
1758440527393404200,6.931404052734375,-0.7763824462890625,-0.6183929443359375,-0.0057525634765625
1758440527403374000,6.9413740234375,-0.7811126708984375,-0.617950439453125,-0.0059356689453125
1758440527413344300,6.95134423828125,-0.782745361328125,-0.6194305419921875,-0.0033111572265625
1758440527423315000,6.96131494140625,-0.7835693359375,-0.621246337890625,-0.0029144287109375
1758440527433285000,6.97128515625,-0.7803192138671875,-0.6240081787109375,-0.0045928955078125
1758440527443256000,6.981256103515625,-0.77685546875,-0.625030517578125,-0.0027313232421875
1758440527453226000,6.99122607421875,-0.7742919921875,-0.62457275390625,-0.001312255859375
1758440527463197200,7.001197265625,-0.7724151611328125,-0.6230621337890625,-0.0023040771484375
1758440527473167000,7.0111669921875,-0.770965576171875,-0.6199951171875,-0.002288818359375
1758440527483138300,7.02113818359375,-0.7669830322265625,-0.61785888671875,-0.0015106201171875
1758440527493108500,7.0311083984375,-0.7655792236328125,-0.61834716796875,-0.0039215087890625
1758440527503079400,7.041079345703125,-0.7729949951171875,-0.6198883056640625,-0.0050811767578125
1758440527513049300,7.05104931640625,-0.7823486328125,-0.619171142578125,-0.00799560546875
1758440527523020500,7.0610205078125,-0.78875732421875,-0.61712646484375,-0.00811767578125
1758440527532990500,7.070990478515625,-0.788421630859375,-0.6161346435546875,-0.0094451904296875
1758440527542961400,7.08096142578125,-0.7792816162109375,-0.61810302734375,-0.0057525634765625
1758440527552931300,7.090931396484375,-0.7699432373046875,-0.6234893798828125,0.0003509521484375
1758440527562902500,7.100902587890625,-0.7667999267578125,-0.627593994140625,0.0047760009765625
1758440527572872400,7.11087255859375,-0.7620849609375,-0.6270294189453125,0.0035858154296875
1758440527582843400,7.120843505859375,-0.76373291015625,-0.623748779296875,-0.0009002685546875
1758440527592813600,7.1308134765625,-0.7715301513671875,-0.6236572265625,-0.0039825439453125
1758440527602784500,7.140784423828125,-0.77825927734375,-0.62359619140625,-0.0068359375
1758440527612754400,7.15075439453125,-0.7781524658203125,-0.6200408935546875,-0.0044097900390625
1758440527622724400,7.160724365234375,-0.779083251953125,-0.6161956787109375,-0.003143310546875
1758440527632695600,7.170695556640625,-0.78076171875,-0.613433837890625,-0.004974365234375
1758440527642665500,7.18066552734375,-0.78497314453125,-0.6159210205078125,-0.0045928955078125
1758440527652636400,7.190636474609375,-0.7847137451171875,-0.615692138671875,-0.006256103515625
1758440527662606600,7.200606689453125,-0.780242919921875,-0.61712646484375,-0.0079498291015625
1758440527672577300,7.210577392578125,-0.7766571044921875,-0.6219482421875,-0.0070343017578125
1758440527682547500,7.22054736328125,-0.7714691162109375,-0.6237030029296875,-0.0038604736328125
1758440527692518400,7.230518310546875,-0.7684326171875,-0.6230316162109375,-0.0013580322265625
1758440527702488300,7.24048828125,-0.774139404296875,-0.6212005615234375,-0.0018768310546875
1758440527712459300,7.250459228515625,-0.7789306640625,-0.6204376220703125,-0.001190185546875
1758440527722429400,7.260429443359375,-0.7816314697265625,-0.619964599609375,-0.0009765625
1758440527732400400,7.270400390625,-0.786895751953125,-0.6197357177734375,-0.00079345703125
1758440527742370300,7.280370361328125,-0.7861480712890625,-0.620208740234375,-0.0001373291015625
1758440527752341500,7.290341552734375,-0.7875518798828125,-0.619384765625,0.0001983642578125
1758440527762311400,7.3003115234375,-0.7859954833984375,-0.6200408935546875,-0.001434326171875
1758440527772282400,7.310282470703125,-0.78228759765625,-0.61773681640625,-0.00579833984375
1758440527782252300,7.320252197265625,-0.7779388427734375,-0.6142425537109375,-0.007843017578125
1758440527792223500,7.330223388671875,-0.7770233154296875,-0.6177520751953125,-0.0088043212890625
1758440527802193400,7.340193359375,-0.7763671875,-0.6206512451171875,-0.0059356689453125
1758440527812164400,7.350164306640625,-0.7750244140625,-0.618194580078125,-0.004791259765625
1758440527822134500,7.360134521484375,-0.769866943359375,-0.61737060546875,-0.0042724609375
1758440527832105500,7.37010546875,-0.7666168212890625,-0.6208038330078125,-0.0032806396484375
1758440527842075400,7.380075439453125,-0.768341064453125,-0.6259918212890625,-0.005950927734375
1758440527852046600,7.390046630859375,-0.770233154296875,-0.6235504150390625,-0.00579833984375
1758440527862016500,7.4000166015625,-0.7726898193359375,-0.6187896728515625,-0.0030670166015625
1758440527871986400,7.409986328125,-0.777984619140625,-0.6173248291015625,-0.002105712890625
1758440527881957400,7.419957275390625,-0.77923583984375,-0.61651611328125,0.000335693359375
1758440527891927600,7.429927490234375,-0.7801055908203125,-0.614593505859375,0.0001678466796875
1758440527901898500,7.4398984375,-0.7801055908203125,-0.6154327392578125,-0.002349853515625
1758440527911868400,7.449868408203125,-0.7825469970703125,-0.6203155517578125,-0.004669189453125
1758440527921839400,7.45983935546875,-0.7873077392578125,-0.622528076171875,-0.003692626953125
1758440527931809500,7.4698095703125,-0.784698486328125,-0.6188201904296875,-0.002655029296875
1758440527941780200,7.4797802734375,-0.78082275390625,-0.61761474609375,-0.0034637451171875
1758440527951750400,7.48975048828125,-0.778839111328125,-0.6198272705078125,-0.006988525390625
1758440527961721300,7.499721435546875,-0.7812347412109375,-0.6199493408203125,-0.0061798095703125
1758440527971691300,7.509691162109375,-0.7823333740234375,-0.61669921875,-0.0025482177734375
1758440527981662500,7.519662353515625,-0.7779998779296875,-0.6150665283203125,-0.0022125244140625
1758440527991632400,7.52963232421875,-0.7726898193359375,-0.6160125732421875,-0.0039215087890625
1758440528001603300,7.539603271484375,-0.7704010009765625,-0.6176300048828125,-0.0066375732421875
1758440528011573200,7.5495732421875,-0.76873779296875,-0.619049072265625,-0.00634765625
1758440528021544400,7.55954443359375,-0.7713165283203125,-0.6178741455078125,-0.006072998046875
1758440528031514400,7.569514404296875,-0.78192138671875,-0.6153717041015625,-0.0052490234375
1758440528041485300,7.5794853515625,-0.787200927734375,-0.6168670654296875,-0.003143310546875
1758440528051455500,7.58945556640625,-0.787872314453125,-0.620208740234375,-0.000457763671875
1758440528061426400,7.599426513671875,-0.788848876953125,-0.62158203125,0.0019073486328125
1758440528071396400,7.609396240234375,-0.786834716796875,-0.6219635009765625,-0.0019378662109375
1758440528081367600,7.619367431640625,-0.776702880859375,-0.618499755859375,-0.004058837890625
1758440528091337500,7.62933740234375,-0.7704925537109375,-0.6176300048828125,-0.0063629150390625
1758440528101308400,7.639308349609375,-0.7675628662109375,-0.6149749755859375,-0.006866455078125
1758440528111278300,7.6492783203125,-0.7656707763671875,-0.6122894287109375,-0.0040740966796875
1758440528121249500,7.65924951171875,-0.767120361328125,-0.6112518310546875,-0.005035400390625
1758440528131219500,7.669219482421875,-0.770172119140625,-0.614990234375,-0.0061187744140625
1758440528141189400,7.679189453125,-0.7779083251953125,-0.618560791015625,-0.0059356689453125
1758440528151160600,7.68916064453125,-0.783660888671875,-0.6215667724609375,-0.0067291259765625
1758440528161130500,7.699130615234375,-0.786407470703125,-0.6229705810546875,-0.003570556640625
1758440528171101400,7.709101318359375,-0.7872772216796875,-0.6233978271484375,-0.0009307861328125
1758440528181071600,7.719071533203125,-0.7837371826171875,-0.6202850341796875,0.0023956298828125
1758440528191042300,7.729042236328125,-0.7816009521484375,-0.61541748046875,0.0011749267578125
1758440528201012500,7.739012451171875,-0.782470703125,-0.612030029296875,-0.0027008056640625
1758440528210983400,7.7489833984375,-0.780670166015625,-0.610931396484375,-0.0060272216796875
1758440528220953300,7.758953369140625,-0.780609130859375,-0.614288330078125,-0.00787353515625
1758440528230924300,7.76892431640625,-0.779754638671875,-0.6192779541015625,-0.0037994384765625
1758440528240894200,7.778894287109375,-0.77435302734375,-0.6237030029296875,0.0011444091796875
1758440528250865400,7.788865478515625,-0.7707061767578125,-0.622467041015625,0.0005950927734375
1758440528260835300,7.79883544921875,-0.7757568359375,-0.6188507080078125,0.0014190673828125
1758440528270806300,7.80880615234375,-0.7824859619140625,-0.6139984130859375,0.0003814697265625
1758440528280776400,7.8187763671875,-0.784423828125,-0.6132354736328125,-0.0028839111328125
1758440528290747400,7.828747314453125,-0.7821502685546875,-0.615081787109375,-0.00494384765625
1758440528300717300,7.83871728515625,-0.7787017822265625,-0.616790771484375,-0.005401611328125
1758440528310688500,7.8486884765625,-0.7765045166015625,-0.6165313720703125,-0.0040740966796875
1758440528320658400,7.858658447265625,-0.775360107421875,-0.6143951416015625,-0.0041961669921875
1758440528330629400,7.86862939453125,-0.7735137939453125,-0.612457275390625,-0.004852294921875
1758440528340599300,7.878599365234375,-0.77435302734375,-0.610198974609375,-0.008453369140625
1758440528350570500,7.888570556640625,-0.7794647216796875,-0.60906982421875,-0.00933837890625
1758440528360540400,7.89854052734375,-0.782196044921875,-0.610931396484375,-0.0048828125
1758440528370511400,7.908511474609375,-0.7899322509765625,-0.6139678955078125,-0.004425048828125
1758440528380481500,7.9184814453125,-0.7998199462890625,-0.6182708740234375,-0.005035400390625
1758440528391698400,7.929698486328125,-0.8024749755859375,-0.620147705078125,-0.00225830078125
1758440528401668400,7.93966845703125,-0.800262451171875,-0.61993408203125,-0.0006103515625
1758440528411639600,7.9496396484375,-0.791015625,-0.6183319091796875,0.0002593994140625
1758440528421609500,7.959609375,-0.7798919677734375,-0.6171722412109375,-0.001373291015625
1758440528431580400,7.969580322265625,-0.77239990234375,-0.61468505859375,-0.000732421875
1758440528441550600,7.979550537109375,-0.7679901123046875,-0.6159515380859375,-0.0025787353515625
1758440528451520500,7.9895205078125,-0.764617919921875,-0.6142578125,-0.0037841796875
1758440528461491500,7.999491455078125,-0.766845703125,-0.6114959716796875,-0.006378173828125
1758440528471461400,8.00946142578125,-0.7756805419921875,-0.6148223876953125,-0.0086517333984375
1758440528481432300,8.019432373046875,-0.7803192138671875,-0.6149444580078125,-0.0082855224609375
1758440528491402800,8.02940283203125,-0.783447265625,-0.6142730712890625,-0.00439453125
1758440528501374000,8.0393740234375,-0.786529541015625,-0.6141357421875,-0.0013275146484375
1758440528511343900,8.04934375,-0.7846221923828125,-0.613677978515625,-0.0034332275390625
1758440528521314800,8.059314697265625,-0.7821807861328125,-0.6157073974609375,-0.0026702880859375
1758440528531284700,8.06928466796875,-0.779693603515625,-0.6177215576171875,-0.0037384033203125
1758440528541256000,8.079255859375,-0.7759246826171875,-0.617523193359375,-0.003570556640625
1758440528551225900,8.089225830078124,-0.776641845703125,-0.61376953125,-0.004852294921875
1758440528561196800,8.09919677734375,-0.7822418212890625,-0.6114044189453125,-0.0084991455078125
1758440528571167000,8.1091669921875,-0.7837677001953125,-0.6080474853515625,-0.0079803466796875
1758440528581138000,8.119137939453125,-0.781097412109375,-0.61041259765625,-0.0066680908203125
1758440528591107800,8.12910791015625,-0.7795867919921875,-0.6151885986328125,-0.004638671875
1758440528601079000,8.1390791015625,-0.7782135009765625,-0.6199951171875,-0.0012969970703125
1758440528611049000,8.149049072265624,-0.7771759033203125,-0.620330810546875,0.003326416015625
1758440528621020000,8.15902001953125,-0.776336669921875,-0.6186981201171875,0.0020904541015625
1758440528630989800,8.16898974609375,-0.7831878662109375,-0.6140899658203125,-0.0021514892578125
1758440528640961000,8.1789609375,-0.7946929931640625,-0.6097412109375,-0.005340576171875
1758440528650931000,8.188930908203124,-0.8028106689453125,-0.607269287109375,-0.0074462890625
1758440528660902100,8.198902099609375,-0.8027496337890625,-0.61004638671875,-0.0068206787109375
1758440528670872000,8.2088720703125,-0.7963714599609375,-0.612548828125,-0.0056304931640625
1758440528680842800,8.2188427734375,-0.7827301025390625,-0.614227294921875,-0.0034027099609375
1758440528690813000,8.22881298828125,-0.7726898193359375,-0.6169891357421875,-0.0020904541015625
1758440528700783900,8.238783935546875,-0.765411376953125,-0.6168060302734375,-0.0014190673828125
1758440528710753800,8.24875390625,-0.7638092041015625,-0.6146240234375,-0.0042877197265625
1758440528720724700,8.258724853515625,-0.7703399658203125,-0.6132049560546875,-0.0076751708984375
1758440528730695000,8.26869482421875,-0.7769317626953125,-0.61474609375,-0.0064849853515625
1758440528740665900,8.278665771484375,-0.781494140625,-0.6149749755859375,-0.00421142578125
1758440528750635800,8.2886357421875,-0.785064697265625,-0.6180877685546875,-0.0036163330078125
1758440528760607000,8.29860693359375,-0.7858428955078125,-0.618560791015625,-0.0029449462890625
1758440528770577000,8.308576904296874,-0.7824249267578125,-0.6173095703125,0.000274658203125
1758440528780547800,8.3185478515625,-0.7758636474609375,-0.615325927734375,-0.0009613037109375
1758440528790517800,8.328517822265624,-0.774688720703125,-0.6133880615234375,-0.0035552978515625
1758440528800489000,8.338489013671875,-0.77362060546875,-0.613861083984375,-0.002899169921875
1758440528810459000,8.348458984375,-0.7780303955078125,-0.6164703369140625,-0.0021209716796875
1758440528820429800,8.358429931640625,-0.789642333984375,-0.6198883056640625,-0.0044097900390625
1758440528830400000,8.36839990234375,-0.79718017578125,-0.6212005615234375,-0.005401611328125
1758440528840371000,8.378370849609375,-0.79736328125,-0.61810302734375,-0.003173828125
1758440528850340900,8.3883408203125,-0.789093017578125,-0.61358642578125,-0.0033416748046875
1758440528860310800,8.398310791015625,-0.780853271484375,-0.6096954345703125,-0.0042877197265625
1758440528870282000,8.408281982421874,-0.775054931640625,-0.6076507568359375,-0.0058746337890625
1758440528880252000,8.418251953125,-0.775421142578125,-0.61016845703125,-0.010345458984375
1758440528890223000,8.42822314453125,-0.7816314697265625,-0.6175384521484375,-0.010162353515625
1758440528900193000,8.438193115234375,-0.7841949462890625,-0.624664306640625,-0.0078277587890625
1758440528910164000,8.4481640625,-0.78485107421875,-0.626556396484375,-0.0025787353515625
1758440528920134000,8.4581337890625,-0.78070068359375,-0.6256256103515625,0.0002899169921875
1758440528930105000,8.46810498046875,-0.7741851806640625,-0.6223297119140625,0.001007080078125
1758440528940075000,8.478074951171875,-0.7653350830078125,-0.6176910400390625,0.000335693359375
1758440528950046000,8.4880458984375,-0.753936767578125,-0.6168670654296875,-0.004730224609375
1758440528960016100,8.49801611328125,-0.75018310546875,-0.616851806640625,-0.0086517333984375
1758440528969986800,8.50798681640625,-0.7537078857421875,-0.6139373779296875,-0.0067596435546875
1758440528979957000,8.51795703125,-0.76568603515625,-0.6137847900390625,-0.00732421875
1758440528989928000,8.527927978515624,-0.7810516357421875,-0.61383056640625,-0.0082244873046875
1758440528999897900,8.53789794921875,-0.7924041748046875,-0.610992431640625,-0.007080078125
1758440529009868800,8.547868896484376,-0.7978973388671875,-0.607940673828125,-0.0088653564453125
1758440529019838700,8.557838623046875,-0.8004150390625,-0.60943603515625,-0.01025390625
1758440529029810000,8.567809814453126,-0.80255126953125,-0.61181640625,-0.01025390625
1758440529039779800,8.57777978515625,-0.793609619140625,-0.6146392822265625,-0.0060577392578125
1758440529049750800,8.587750732421876,-0.788970947265625,-0.620330810546875,-0.0032196044921875
1758440529059721000,8.597720947265625,-0.78558349609375,-0.6272735595703125,-0.002899169921875
1758440529069692000,8.60769189453125,-0.78515625,-0.6281585693359375,-0.004425048828125
1758440529079661800,8.617661865234375,-0.7812957763671875,-0.6236572265625,-0.0041351318359375
1758440529089633000,8.627633056640626,-0.7763214111328125,-0.6170196533203125,-0.005096435546875
1758440529099603000,8.63760302734375,-0.7727508544921875,-0.6082916259765625,-0.005645751953125
1758440529109574000,8.647573974609376,-0.7693328857421875,-0.6041412353515625,-0.0093536376953125
1758440529119543800,8.657543701171875,-0.7709808349609375,-0.605255126953125,-0.0110626220703125
1758440529129515000,8.667514892578126,-0.7773284912109375,-0.6080169677734375,-0.0110015869140625
1758440529139485000,8.67748486328125,-0.7808990478515625,-0.6119842529296875,-0.0098724365234375
1758440529149456100,8.6874560546875,-0.782196044921875,-0.6127166748046875,-0.0096282958984375
1758440529159426000,8.697426025390625,-0.7872161865234375,-0.61431884765625,-0.0088958740234375
1758440529169397000,8.70739697265625,-0.7884063720703125,-0.615142822265625,-0.008270263671875
1758440529179367000,8.717366943359375,-0.7825469970703125,-0.615325927734375,-0.0077362060546875
1758440529189337900,8.727337890625,-0.7778167724609375,-0.6185455322265625,-0.003570556640625
1758440529199308000,8.73730810546875,-0.7708587646484375,-0.624481201171875,0.0010528564453125
1758440529209278700,8.74727880859375,-0.768524169921875,-0.626708984375,0.0023956298828125
1758440529219249000,8.757248779296875,-0.767730712890625,-0.6253509521484375,-0.00067138671875
1758440529229219800,8.7672197265625,-0.7701568603515625,-0.619598388671875,-0.00408935546875
1758440529239189800,8.777189697265625,-0.7766265869140625,-0.61346435546875,-0.005157470703125
1758440529249161000,8.787160888671876,-0.7883758544921875,-0.6089324951171875,-0.0070648193359375
1758440529259131000,8.797130859375,-0.7948760986328125,-0.6057281494140625,-0.0097198486328125
1758440529269101800,8.807101806640626,-0.7955169677734375,-0.604736328125,-0.0104827880859375
1758440529279071700,8.81707177734375,-0.7940521240234375,-0.6076202392578125,-0.01153564453125
1758440529289043000,8.82704296875,-0.7845611572265625,-0.611541748046875,-0.0117645263671875
1758440529299012900,8.837012939453125,-0.7771759033203125,-0.61578369140625,-0.0099029541015625
1758440529308983800,8.84698388671875,-0.7708282470703125,-0.6187591552734375,-0.006561279296875
1758440529318954000,8.8569541015625,-0.7678680419921875,-0.6212005615234375,-0.0050201416015625
1758440529328925000,8.866925048828126,-0.7693634033203125,-0.622650146484375,-0.0023040771484375
1758440529338894800,8.876894775390625,-0.774261474609375,-0.620574951171875,-0.00146484375
1758440529348864800,8.88686474609375,-0.77996826171875,-0.616729736328125,-0.0048065185546875
1758440529358836000,8.8968359375,-0.78656005859375,-0.6138153076171875,-0.005889892578125
1758440529368806000,8.906805908203125,-0.789886474609375,-0.61212158203125,-0.0063629150390625
1758440529378777000,8.916777099609375,-0.7877960205078125,-0.6125640869140625,-0.0054931640625
1758440529388747000,8.9267470703125,-0.7801971435546875,-0.6135406494140625,-0.0040283203125
1758440529398718000,8.936718017578125,-0.7733001708984375,-0.61187744140625,-0.00347900390625
1758440529408687900,8.94668798828125,-0.7671356201171875,-0.614227294921875,-0.0059356689453125
1758440529418659000,8.9566591796875,-0.7691802978515625,-0.61590576171875,-0.0061492919921875
1758440529428629000,8.96662890625,-0.7721405029296875,-0.6192474365234375,-0.00445556640625
1758440529438600000,8.976599853515625,-0.7782135009765625,-0.621368408203125,-0.001861572265625
1758440529448570000,8.986570068359375,-0.7862091064453125,-0.621246337890625,-0.000244140625
1758440529458540800,8.996540771484375,-0.7922210693359375,-0.62200927734375,-0.0001678466796875
1758440529468511000,9.006510986328125,-0.7901458740234375,-0.62091064453125,-0.001739501953125
1758440529478482000,9.01648193359375,-0.78350830078125,-0.6161651611328125,-0.005218505859375
1758440529488451600,9.02645166015625,-0.7815093994140625,-0.613555908203125,-0.0040130615234375
1758440529498422500,9.036422607421875,-0.7803497314453125,-0.6120147705078125,-0.0048980712890625
1758440529508392400,9.046392333984375,-0.7799835205078125,-0.609832763671875,-0.0052032470703125
1758440529518363400,9.05636328125,-0.7863922119140625,-0.6118621826171875,-0.00665283203125
1758440529528333600,9.06633349609375,-0.7896881103515625,-0.609344482421875,-0.007110595703125
1758440529538304500,9.076304443359374,-0.788177490234375,-0.609222412109375,-0.0062408447265625
1758440529548274400,9.0862744140625,-0.7861785888671875,-0.614471435546875,-0.00738525390625
1758440529558245600,9.09624560546875,-0.7867431640625,-0.6190032958984375,-0.00518798828125
1758440529568215600,9.106215576171875,-0.7831878662109375,-0.61834716796875,-0.004791259765625
1758440529578186500,9.1161865234375,-0.780548095703125,-0.61810302734375,-0.0046844482421875
1758440529588156400,9.126156494140625,-0.7764892578125,-0.61810302734375,-0.00384521484375
1758440529598127600,9.136127685546874,-0.7693634033203125,-0.6176910400390625,-0.005767822265625
1758440529608097500,9.14609765625,-0.77056884765625,-0.618499755859375,-0.0062103271484375
1758440529618068500,9.156068359375,-0.768585205078125,-0.6160430908203125,-0.005157470703125
1758440529628038700,9.16603857421875,-0.76806640625,-0.61474609375,-0.0027923583984375
1758440529638009600,9.176009521484374,-0.7695159912109375,-0.614837646484375,-0.003265380859375
1758440529647979500,9.1859794921875,-0.7689208984375,-0.6160888671875,-0.00225830078125
1758440529657950700,9.19595068359375,-0.7716827392578125,-0.6180267333984375,-0.00341796875
1758440529667920600,9.205920654296875,-0.7766265869140625,-0.6191253662109375,-0.006134033203125
1758440529677891600,9.2158916015625,-0.78466796875,-0.6187591552734375,-0.007080078125
1758440529687861800,9.22586181640625,-0.7870635986328125,-0.6145172119140625,-0.0074310302734375
1758440529697832700,9.235832763671874,-0.7887420654296875,-0.61456298828125,-0.0063934326171875
1758440529707802600,9.245802734375,-0.7895660400390625,-0.613861083984375,-0.00628662109375
1758440529717773600,9.255773681640624,-0.790252685546875,-0.6154022216796875,-0.0046539306640625
1758440529727743700,9.26574365234375,-0.7841033935546875,-0.618194580078125,-0.0031890869140625
1758440529737714400,9.27571435546875,-0.7787933349609375,-0.6201324462890625,-0.002655029296875
1758440529747684400,9.285684326171875,-0.7781219482421875,-0.619720458984375,0.00006103515625
1758440529757655600,9.295655517578124,-0.7804718017578125,-0.61871337890625,-0.0053558349609375
1758440529767625500,9.30562548828125,-0.7835845947265625,-0.6162109375,-0.0081634521484375
1758440529777596400,9.315596435546874,-0.7823333740234375,-0.613250732421875,-0.0087127685546875
1758440529787566600,9.325566650390625,-0.783294677734375,-0.613494873046875,-0.007965087890625
1758440529797537500,9.33553759765625,-0.7812347412109375,-0.613433837890625,-0.00518798828125
1758440529807507500,9.345507568359375,-0.777801513671875,-0.615234375,-0.00390625
1758440529817478700,9.355478759765624,-0.77423095703125,-0.6156158447265625,-0.002197265625
1758440529827448600,9.365448486328125,-0.7733154296875,-0.6189727783203125,-0.003173828125
1758440529837419500,9.37541943359375,-0.77398681640625,-0.618865966796875,-0.00482177734375
1758440529847389400,9.385389404296875,-0.7757720947265625,-0.618743896484375,-0.0044097900390625
1758440529857360600,9.395360595703124,-0.77813720703125,-0.6186676025390625,-0.0040283203125
1758440529867330600,9.40533056640625,-0.7777557373046875,-0.61712646484375,-0.0037384033203125
1758440529877301800,9.4153017578125,-0.7789764404296875,-0.61614990234375,-0.0009918212890625
1758440529887271700,9.425271728515625,-0.78106689453125,-0.6171722412109375,-0.0048980712890625
1758440529897242600,9.43524267578125,-0.784149169921875,-0.6184539794921875,-0.00506591796875
1758440529907212500,9.445212646484375,-0.7852325439453125,-0.6169281005859375,-0.00579833984375
1758440529917183700,9.455183837890624,-0.777984619140625,-0.614959716796875,-0.0033111572265625
1758440529927153700,9.465153564453125,-0.7751617431640625,-0.6139068603515625,-0.0035247802734375
1758440529937124600,9.47512451171875,-0.774627685546875,-0.6158905029296875,-0.0036468505859375
1758440529947094800,9.4850947265625,-0.7754669189453125,-0.6139984130859375,-0.00335693359375
1758440529957065500,9.4950654296875,-0.781951904296875,-0.6114654541015625,-0.0062255859375
1758440529967035600,9.50503564453125,-0.7867889404296875,-0.617156982421875,-0.0059356689453125
1758440529977006600,9.515006591796874,-0.781402587890625,-0.619537353515625,-0.004241943359375
1758440529986976500,9.5249765625,-0.7752685546875,-0.620208740234375,-0.0013885498046875
1758440529996947500,9.534947509765624,-0.7695465087890625,-0.61865234375,-0.0008544921875
1758440530006917400,9.54491748046875,-0.7722015380859375,-0.61761474609375,-0.0027923583984375
1758440530016888600,9.554888671875,-0.7790069580078125,-0.61492919921875,-0.0047607421875
1758440530026858500,9.5648583984375,-0.7860565185546875,-0.61358642578125,-0.0041351318359375
1758440530036829400,9.574829345703124,-0.7864837646484375,-0.61175537109375,-0.004669189453125
1758440530046799600,9.584799560546875,-0.782623291015625,-0.6131134033203125,-0.0052337646484375
1758440530056770600,9.5947705078125,-0.7779998779296875,-0.6186676025390625,-0.0046234130859375
1758440530066740500,9.604740478515625,-0.77752685546875,-0.6202850341796875,-0.0004730224609375
1758440530076711700,9.614711669921874,-0.780029296875,-0.6208343505859375,-0.0016632080078125
1758440530086681600,9.624681640625,-0.7853851318359375,-0.618133544921875,-0.0025634765625
1758440530096652500,9.634652587890624,-0.789886474609375,-0.6155853271484375,-0.004180908203125
1758440530106622500,9.64462255859375,-0.7888031005859375,-0.6132965087890625,-0.004486083984375
1758440530116593700,9.65459375,-0.780517578125,-0.6119842529296875,-0.002960205078125
1758440530126563600,9.6645634765625,-0.7764129638671875,-0.614410400390625,-0.0011749267578125
1758440530136534800,9.67453466796875,-0.77496337890625,-0.618865966796875,-0.0024566650390625
1758440530146504700,9.684504638671875,-0.7743682861328125,-0.6210479736328125,-0.006103515625
1758440530156475600,9.6944755859375,-0.7757720947265625,-0.6178741455078125,-0.0041961669921875
1758440530166445600,9.704445556640625,-0.779571533203125,-0.616241455078125,-0.0026092529296875
1758440530176416500,9.71441650390625,-0.7820587158203125,-0.6168975830078125,-0.003936767578125
1758440530186386700,9.72438671875,-0.7811279296875,-0.612823486328125,-0.005767822265625
1758440530196357400,9.734357421875,-0.780242919921875,-0.609375,-0.006256103515625
1758440530206327600,9.74432763671875,-0.7805328369140625,-0.609619140625,-0.0073089599609375
1758440530216298500,9.754298583984376,-0.781890869140625,-0.617584228515625,-0.0061187744140625
1758440530226268400,9.764268310546875,-0.785430908203125,-0.6246795654296875,-0.0009918212890625
1758440530236239600,9.774239501953126,-0.7855987548828125,-0.6248016357421875,0.002655029296875
1758440530246209500,9.78420947265625,-0.7797393798828125,-0.6198272705078125,0.0024566650390625
1758440530256180500,9.794180419921876,-0.7758941650390625,-0.6159820556640625,-0.0008697509765625
1758440530266150400,9.804150390625,-0.767730712890625,-0.6156005859375,-0.0040130615234375
1758440530276121600,9.81412158203125,-0.7638092041015625,-0.61932373046875,-0.0027313232421875
1758440530286091500,9.824091552734375,-0.76458740234375,-0.6179656982421875,-0.002166748046875
1758440530296062500,9.8340625,-0.77081298828125,-0.6199493408203125,-0.0048828125
1758440530306032600,9.84403271484375,-0.77838134765625,-0.6177825927734375,-0.00604248046875
1758440530316003600,9.854003662109376,-0.7842864990234375,-0.616546630859375,-0.0062255859375
1758440530325973500,9.863973388671875,-0.78338623046875,-0.6135711669921875,-0.0059967041015625
1758440530335944700,9.87394482421875,-0.7815093994140625,-0.6127777099609375,-0.0046234130859375
1758440530345914600,9.88391455078125,-0.7817840576171875,-0.6125335693359375,-0.00396728515625
1758440530355885600,9.893885498046876,-0.787689208984375,-0.6131591796875,-0.005523681640625
1758440530365855700,9.903855712890625,-0.7923126220703125,-0.6159820556640625,-0.0059814453125
1758440530375826700,9.91382666015625,-0.7900848388671875,-0.6183319091796875,-0.002685546875
1758440530385796600,9.923796630859375,-0.7860870361328125,-0.6214447021484375,-0.0013885498046875
1758440530395766500,9.9337666015625,-0.777740478515625,-0.6248626708984375,0.00103759765625
1758440530405737700,9.94373779296875,-0.7734832763671875,-0.6234283447265625,0.0025482177734375
1758440530415708400,9.95370849609375,-0.7719573974609375,-0.6174468994140625,0.0014190673828125
1758440530425678600,9.9636787109375,-0.7711334228515625,-0.61260986328125,-0.002838134765625
1758440530435649500,9.9736494140625,-0.77947998046875,-0.610687255859375,-0.0070953369140625
1758440530445619500,9.983619384765625,-0.783447265625,-0.6090087890625,-0.006561279296875
1758440530455589600,9.993589599609376,-0.7852325439453125,-0.61041259765625,-0.00579833984375
1758440530465560600,10.003560546875,-0.78302001953125,-0.6143646240234375,-0.0059967041015625
1758440530475531500,10.013531494140626,-0.779266357421875,-0.6197662353515625,-0.004669189453125
1758440530485501400,10.02350146484375,-0.7779998779296875,-0.620758056640625,-0.00054931640625
1758440530495472400,10.033472412109376,-0.7799224853515625,-0.62213134765625,0.0001220703125
1758440530505442600,10.043442626953125,-0.7814483642578125,-0.6205902099609375,-0.0029754638671875
1758440530515413500,10.05341357421875,-0.778656005859375,-0.6181640625,-0.0050201416015625
1758440530525383400,10.063383544921875,-0.78125,-0.6158599853515625,-0.0048370361328125
1758440530535353300,10.073353271484375,-0.778839111328125,-0.616119384765625,-0.00640869140625
1758440530545324500,10.083324462890625,-0.77777099609375,-0.615264892578125,-0.005828857421875
1758440530555295500,10.09329541015625,-0.7759246826171875,-0.6150665283203125,-0.0048828125
1758440530565265400,10.103265380859375,-0.7724609375,-0.6153717041015625,-0.0034332275390625
1758440530575236600,10.113236572265626,-0.7714385986328125,-0.6151580810546875,-0.00140380859375
1758440530585206500,10.12320654296875,-0.7717437744140625,-0.6148681640625,-0.001678466796875
1758440530595176400,10.133176513671875,-0.77642822265625,-0.6162109375,-0.0015411376953125
1758440530605147600,10.143147705078125,-0.7782135009765625,-0.61993408203125,-0.0006561279296875
1758440530615118600,10.15311865234375,-0.7807464599609375,-0.6220245361328125,-0.0011749267578125
1758440530625088500,10.163088623046875,-0.783447265625,-0.6197509765625,-0.0016937255859375
1758440530635058700,10.17305859375,-0.78851318359375,-0.618743896484375,-0.0038299560546875
1758440530645029600,10.183029541015625,-0.788482666015625,-0.6166229248046875,-0.0043182373046875
1758440530654999600,10.19299951171875,-0.7862396240234375,-0.6128692626953125,-0.004730224609375
1758440530664970800,10.202970703125,-0.78338623046875,-0.6138763427734375,-0.003875732421875
1758440530674941400,10.21294140625,-0.77947998046875,-0.617706298828125,-0.00341796875
1758440530684911600,10.22291162109375,-0.7747039794921875,-0.619659423828125,-0.0008697509765625
1758440530694881500,10.232881591796875,-0.77435302734375,-0.6206207275390625,-0.0021820068359375
1758440530704852500,10.2428525390625,-0.773223876953125,-0.6185455322265625,-0.0033416748046875
1758440530714823400,10.252823486328126,-0.775787353515625,-0.617767333984375,-0.0035247802734375
1758440530724793300,10.26279345703125,-0.78021240234375,-0.6162109375,-0.00335693359375
1758440530734764500,10.2727646484375,-0.78350830078125,-0.6116790771484375,-0.00067138671875
1758440530744734500,10.282734375,-0.784271240234375,-0.608489990234375,-0.0003204345703125
1758440530754705400,10.292705322265626,-0.7802276611328125,-0.611968994140625,-0.002838134765625
1758440530764675600,10.302675537109375,-0.7791900634765625,-0.61517333984375,-0.0030975341796875
1758440530774646500,10.312646484375,-0.7813873291015625,-0.6195220947265625,-0.0029296875
1758440530784616400,10.322616455078125,-0.778533935546875,-0.622314453125,-0.002288818359375
1758440530794587600,10.332587646484376,-0.780242919921875,-0.6224822998046875,-0.00091552734375
1758440530804557600,10.3425576171875,-0.7815704345703125,-0.6203765869140625,-0.0019989013671875
1758440530814527500,10.352527587890625,-0.7806549072265625,-0.6158447265625,-0.0035247802734375
1758440530824498400,10.36249853515625,-0.7817230224609375,-0.6154327392578125,-0.001953125
1758440530834469600,10.3724697265625,-0.783447265625,-0.615234375,-0.00189208984375
1758440530844439600,10.382439453125,-0.782928466796875,-0.6149139404296875,-0.0027008056640625
1758440530854410800,10.39241064453125,-0.77801513671875,-0.614349365234375,-0.0002593994140625
1758440530864380700,10.402380615234375,-0.775146484375,-0.613800048828125,-0.0007476806640625
1758440530874350600,10.4123505859375,-0.772247314453125,-0.6161041259765625,-0.00311279296875
1758440530884321500,10.422321533203124,-0.76849365234375,-0.6192169189453125,-0.0031280517578125
1758440530894292500,10.43229248046875,-0.768463134765625,-0.6213531494140625,0.0007781982421875
1758440530904262700,10.4422626953125,-0.7692108154296875,-0.620697021484375,-0.000885009765625
1758440530914233300,10.4522333984375,-0.773712158203125,-0.619354248046875,-0.0012664794921875
1758440530924203500,10.46220361328125,-0.7804107666015625,-0.6177825927734375,-0.003448486328125
1758440530934174500,10.472174560546875,-0.786834716796875,-0.6172943115234375,-0.0037384033203125
1758440530944144400,10.482144287109374,-0.7898101806640625,-0.6164398193359375,-0.0057373046875
1758440530954115600,10.492115478515625,-0.7831268310546875,-0.614501953125,-0.0074310302734375
1758440530964085500,10.50208544921875,-0.780731201171875,-0.6123199462890625,-0.0061492919921875
1758440530974056400,10.512056396484375,-0.7789764404296875,-0.6128082275390625,-0.00445556640625
1758440530984026400,10.5220263671875,-0.775390625,-0.6142120361328125,-0.0027008056640625
1758440530993997600,10.53199755859375,-0.7757568359375,-0.614105224609375,-0.0015106201171875
1758440531003967500,10.541967529296874,-0.7787628173828125,-0.6173095703125,-0.002044677734375
1758440531013938400,10.5519384765625,-0.7819976806640625,-0.6192779541015625,-0.0011749267578125
1758440531023908600,10.56190869140625,-0.7845916748046875,-0.618743896484375,-0.001617431640625
1758440531033879600,10.571879638671875,-0.7877044677734375,-0.618743896484375,-0.0006866455078125
1758440531043849500,10.581849365234374,-0.78973388671875,-0.6213836669921875,0.002532958984375
1758440531053820700,10.591820556640625,-0.787628173828125,-0.6220855712890625,-0.0013275146484375
1758440531063790600,10.60179052734375,-0.783355712890625,-0.6194915771484375,0.0001983642578125
1758440531073761500,10.611761474609375,-0.7796783447265625,-0.615966796875,0.0022430419921875
1758440531083731700,10.621731689453124,-0.7736968994140625,-0.6155853271484375,-0.0013885498046875
1758440531093702700,10.63170263671875,-0.77142333984375,-0.6131439208984375,-0.004852294921875
1758440531103672600,10.641672607421874,-0.7749481201171875,-0.6128997802734375,-0.002044677734375
1758440531113643500,10.6516435546875,-0.78216552734375,-0.6175537109375,-0.00103759765625
1758440531123613700,10.66161376953125,-0.786712646484375,-0.615142822265625,-0.004608154296875
1758440531133584400,10.67158447265625,-0.78973388671875,-0.612762451171875,-0.00299072265625
1758440531143554600,10.681554443359374,-0.7871551513671875,-0.615234375,-0.00238037109375
1758440531153525500,10.691525390625,-0.7797698974609375,-0.6168060302734375,-0.005096435546875
1758440531163495400,10.701495361328124,-0.773345947265625,-0.617095947265625,-0.0034942626953125
1758440531173466400,10.71146630859375,-0.7694244384765625,-0.61767578125,-0.0011749267578125
1758440531183436500,10.7214365234375,-0.7642364501953125,-0.617279052734375,-0.003326416015625
1758440531193407500,10.731407470703125,-0.7643890380859375,-0.614288330078125,-0.0041046142578125
1758440531203377400,10.74137744140625,-0.770111083984375,-0.6165618896484375,-0.001922607421875
1758440531213348600,10.7513486328125,-0.7738037109375,-0.6172943115234375,0.001678466796875
1758440531223318500,10.761318603515624,-0.777740478515625,-0.6185455322265625,0.0009918212890625
1758440531233289500,10.77128955078125,-0.7795257568359375,-0.6192474365234375,-0.00030517578125
1758440531243259400,10.78125927734375,-0.7814788818359375,-0.6180877685546875,-0.00018310546875
1758440531253230600,10.791230712890625,-0.782806396484375,-0.6185150146484375,0.0002593994140625
1758440531263200500,10.801200439453124,-0.7860260009765625,-0.614593505859375,-0.0023193359375
1758440531273171500,10.81117138671875,-0.78765869140625,-0.61309814453125,-0.00457763671875
1758440531283141600,10.8211416015625,-0.786041259765625,-0.6122894287109375,-0.0035247802734375
1758440531293112600,10.831112548828125,-0.785247802734375,-0.6126708984375,-0.00311279296875
1758440531303082500,10.84108251953125,-0.784149169921875,-0.6172332763671875,-0.000732421875
1758440531313053700,10.8510537109375,-0.7781219482421875,-0.620208740234375,0.0015106201171875
1758440531323023600,10.861023681640624,-0.7764892578125,-0.6226959228515625,0.0001068115234375
1758440531332994600,10.87099462890625,-0.775177001953125,-0.6207122802734375,0.0004425048828125
1758440531342964700,10.88096484375,-0.775634765625,-0.615447998046875,-0.0027618408203125
1758440531352935700,10.890935791015625,-0.77618408203125,-0.6139678955078125,-0.0052490234375
1758440531362905600,10.900905517578124,-0.776397705078125,-0.61212158203125,-0.0058441162109375
1758440531372876500,10.91087646484375,-0.77520751953125,-0.6139984130859375,-0.003448486328125
1758440531382846700,10.9208466796875,-0.77783203125,-0.6146697998046875,-0.0028076171875
1758440531392817400,10.9308173828125,-0.7817535400390625,-0.616180419921875,-0.001556396484375
1758440531402787300,10.940787353515624,-0.7860870361328125,-0.617889404296875,-0.0018157958984375
1758440531412758500,10.950758544921875,-0.78704833984375,-0.6181793212890625,-0.00018310546875
1758440531422728400,10.960728515625,-0.78656005859375,-0.6176605224609375,-0.000030517578125
1758440531432699400,10.970699462890625,-0.7830047607421875,-0.6181793212890625,-0.00115966796875
1758440531442669600,10.980669677734374,-0.7816619873046875,-0.6164398193359375,-0.0015869140625
1758440531452640500,10.990640625,-0.77984619140625,-0.614959716796875,-0.0006866455078125
1758440531462610400,11.0006103515625,-0.7822265625,-0.615570068359375,0.0015411376953125
1758440531472581600,11.01058154296875,-0.78277587890625,-0.619140625,-0.001129150390625
1758440531482551600,11.020551513671874,-0.78369140625,-0.6171112060546875,-0.0023345947265625
1758440531492522000,11.03052197265625,-0.7810821533203125,-0.6139373779296875,-0.00189208984375
1758440531502492200,11.0404921875,-0.78253173828125,-0.6134490966796875,-0.00311279296875
1758440531512463000,11.050463134765625,-0.7810821533203125,-0.61346435546875,-0.004669189453125
1758440531522433000,11.06043310546875,-0.7805633544921875,-0.610443115234375,-0.0060882568359375
1758440531532404200,11.070404296875,-0.784820556640625,-0.6115875244140625,-0.0072174072265625
1758440531542374100,11.0803740234375,-0.7849884033203125,-0.6110076904296875,-0.0074462890625
1758440531552345000,11.090344970703125,-0.782440185546875,-0.613800048828125,-0.00579833984375
1758440531562315000,11.10031494140625,-0.7777099609375,-0.61895751953125,-0.0028228759765625
1758440531572286200,11.1102861328125,-0.77178955078125,-0.624420166015625,0.0001068115234375
1758440531582256000,11.120256103515626,-0.766754150390625,-0.6239013671875,0.0032501220703125
1758440531592227000,11.13022705078125,-0.7643890380859375,-0.6174774169921875,0.0059356689453125
1758440531602197200,11.140197265625,-0.7657928466796875,-0.61517333984375,0.0025482177734375
1758440531612168200,11.150168212890625,-0.77197265625,-0.617156982421875,-0.0027313232421875
1758440531622138000,11.16013818359375,-0.7784576416015625,-0.6163482666015625,-0.002471923828125
1758440531632109000,11.170109130859375,-0.7827301025390625,-0.6150970458984375,-0.0024261474609375
1758440531642079200,11.180079345703126,-0.7852630615234375,-0.613494873046875,-0.0013427734375
1758440531652050000,11.1900498046875,-0.7884979248046875,-0.61419677734375,-0.0026702880859375
1758440531662020000,11.20002001953125,-0.7810211181640625,-0.61480712890625,-0.001983642578125
1758440531671991000,11.209990966796875,-0.780364990234375,-0.61553955078125,-0.0047149658203125
1758440531681961000,11.2199609375,-0.78289794921875,-0.61083984375,-0.0093231201171875
1758440531691932000,11.229931884765625,-0.7881927490234375,-0.6103363037109375,-0.0092926025390625
1758440531701902000,11.239902099609376,-0.7923583984375,-0.6129150390625,-0.0060272216796875
1758440531711873000,11.249873046875,-0.7914276123046875,-0.6147613525390625,-0.0030059814453125
1758440531721843000,11.259843017578126,-0.7883148193359375,-0.6168670654296875,-0.00054931640625
1758440531731814100,11.269814208984375,-0.7817535400390625,-0.619537353515625,-0.000640869140625
1758440531741784000,11.2797841796875,-0.774566650390625,-0.6216278076171875,-0.000030517578125
1758440531751755000,11.289755126953125,-0.7725372314453125,-0.619720458984375,0.0025482177734375
1758440531761725200,11.29972509765625,-0.779449462890625,-0.619720458984375,0.000701904296875
1758440531771696000,11.309696044921875,-0.7852783203125,-0.61712646484375,-0.0028839111328125
1758440531781666000,11.319666015625,-0.790496826171875,-0.6103057861328125,-0.00103759765625
1758440531791637200,11.32963720703125,-0.7980499267578125,-0.60888671875,-0.0016326904296875
1758440531801607200,11.339607177734376,-0.794403076171875,-0.61029052734375,-0.0020599365234375
1758440531811578000,11.349578125,-0.783172607421875,-0.61041259765625,-0.0015411376953125
1758440531821548000,11.359548095703126,-0.772918701171875,-0.61285400390625,-0.0024871826171875
1758440531831519200,11.369519287109375,-0.76690673828125,-0.6121673583984375,-0.005218505859375
1758440531841489200,11.3794892578125,-0.76556396484375,-0.6120452880859375,-0.0047454833984375
1758440531851460000,11.389460205078125,-0.776153564453125,-0.615509033203125,-0.004913330078125
1758440531861430300,11.39943017578125,-0.7855377197265625,-0.616851806640625,-0.00738525390625
1758440531871401000,11.40940087890625,-0.7877655029296875,-0.614898681640625,-0.005279541015625
1758440531881371100,11.41937109375,-0.787200927734375,-0.615325927734375,-0.001129150390625
1758440531891342000,11.429342041015625,-0.7808685302734375,-0.6164703369140625,0.002899169921875
1758440531901312000,11.43931201171875,-0.77435302734375,-0.6163787841796875,0.0013427734375
1758440531911283000,11.449282958984375,-0.7707366943359375,-0.6144866943359375,-0.0008392333984375
1758440531921252900,11.4592529296875,-0.7788848876953125,-0.61395263671875,-0.0017242431640625
1758440531931224000,11.46922412109375,-0.7822113037109375,-0.6133575439453125,-0.002044677734375
1758440531941194000,11.479194091796876,-0.7866363525390625,-0.6137237548828125,-0.004608154296875
1758440531951165000,11.4891650390625,-0.7882537841796875,-0.61444091796875,-0.0053863525390625
1758440531961135000,11.499135009765626,-0.7854766845703125,-0.612823486328125,-0.0048675537109375
1758440531971106000,11.50910595703125,-0.783355712890625,-0.6156005859375,-0.0042266845703125
1758440531981076000,11.519075927734375,-0.7789306640625,-0.6126251220703125,-0.00213623046875
1758440531991047200,11.529047119140625,-0.773651123046875,-0.6113739013671875,-0.002288818359375
1758440532001017000,11.53901708984375,-0.7733154296875,-0.6134185791015625,-0.002044677734375
1758440532010988000,11.548988037109375,-0.774871826171875,-0.6152496337890625,-0.00274658203125
1758440532020958200,11.558958251953126,-0.783782958984375,-0.615478515625,-0.0042266845703125
1758440532030929200,11.56892919921875,-0.7924652099609375,-0.6160736083984375,-0.006072998046875
1758440532040899000,11.578899169921876,-0.7953948974609375,-0.6138763427734375,-0.0052490234375
1758440532050870300,11.588870361328125,-0.796783447265625,-0.6147003173828125,-0.0036773681640625
1758440532060840200,11.598840087890625,-0.791015625,-0.615081787109375,-0.0030059814453125
1758440532070811100,11.60881103515625,-0.7800445556640625,-0.615570068359375,0.0005950927734375
1758440532080781000,11.618781005859375,-0.769012451171875,-0.616546630859375,0.0010528564453125
1758440532090752000,11.628751953125,-0.7611846923828125,-0.61663818359375,-0.000946044921875
1758440532100723000,11.638722900390626,-0.76763916015625,-0.61456298828125,-0.0028839111328125
1758440532110692900,11.64869287109375,-0.779937744140625,-0.6145477294921875,-0.0050811767578125
1758440532120664000,11.6586640625,-0.78973388671875,-0.6127166748046875,-0.006866455078125
1758440532130634000,11.668634033203125,-0.79632568359375,-0.61016845703125,-0.007781982421875
1758440532140605000,11.67860498046875,-0.801025390625,-0.6118927001953125,-0.007232666015625
1758440532150575000,11.6885751953125,-0.7929840087890625,-0.6153717041015625,-0.000823974609375
1758440532160546000,11.698546142578126,-0.780914306640625,-0.6155548095703125,-0.0010986328125
1758440532170516000,11.708515869140625,-0.774810791015625,-0.61578369140625,-0.0011444091796875
1758440532180487200,11.718487060546876,-0.7684326171875,-0.6133575439453125,-0.0028839111328125
1758440532190457000,11.72845703125,-0.77020263671875,-0.6137542724609375,-0.000946044921875
1758440532200428000,11.738427978515626,-0.7789459228515625,-0.6124420166015625,-0.0053863525390625
1758440532210398000,11.74839794921875,-0.7864227294921875,-0.61395263671875,-0.0102386474609375
1758440532220369200,11.758369140625,-0.7889251708984375,-0.619110107421875,-0.011474609375
1758440532230339000,11.768339111328125,-0.7816619873046875,-0.620147705078125,-0.0056915283203125
1758440532240310300,11.778310302734376,-0.7724761962890625,-0.618316650390625,-0.0020904541015625
1758440532250280200,11.7882802734375,-0.76519775390625,-0.6146087646484375,0.0013885498046875
1758440532260251100,11.798251220703126,-0.764251708984375,-0.6104278564453125,0.001708984375
1758440532270221000,11.808220947265625,-0.7691802978515625,-0.613067626953125,-0.0014801025390625
1758440532280192300,11.818192138671876,-0.7787017822265625,-0.6160430908203125,-0.0032958984375
1758440532290162200,11.828162109375,-0.789825439453125,-0.615203857421875,-0.0067901611328125
1758440532300132900,11.8381328125,-0.7977294921875,-0.6129608154296875,-0.005645751953125
1758440532310103300,11.848103271484375,-0.800689697265625,-0.6096954345703125,-0.0021209716796875
1758440532320074000,11.858073974609376,-0.7974395751953125,-0.6108856201171875,-0.004302978515625
1758440532330044000,11.8680439453125,-0.787017822265625,-0.6109771728515625,-0.0052947998046875
1758440532340015000,11.87801513671875,-0.77752685546875,-0.61419677734375,-0.0046234130859375
1758440532349985000,11.887985107421875,-0.7734375,-0.6165618896484375,-0.0063629150390625
1758440532359956000,11.8979560546875,-0.773712158203125,-0.6194000244140625,-0.00482177734375
1758440532369926000,11.90792578125,-0.7797088623046875,-0.620635986328125,-0.00439453125
1758440532379897000,11.91789697265625,-0.7872161865234375,-0.618682861328125,-0.003387451171875
1758440532389867000,11.927866943359374,-0.786956787109375,-0.6156005859375,-0.0015869140625
1758440532399838000,11.937837890625,-0.7816009521484375,-0.6125946044921875,-0.002899169921875
1758440532409808100,11.94780810546875,-0.7774810791015625,-0.6104278564453125,-0.0053558349609375
1758440532419779000,11.957779052734375,-0.7749481201171875,-0.6101837158203125,-0.00396728515625
1758440532429749000,11.9677490234375,-0.77301025390625,-0.609771728515625,-0.003265380859375
1758440532439720200,11.97772021484375,-0.773529052734375,-0.61346435546875,-0.003753662109375
1758440532449690000,11.987690185546874,-0.775634765625,-0.6172637939453125,-0.0056610107421875
1758440532459661000,11.9976611328125,-0.78155517578125,-0.6201019287109375,-0.0040130615234375
1758440532469631000,12.007630859375,-0.781219482421875,-0.6187744140625,-0.0034942626953125
1758440532479602200,12.017602294921875,-0.7817840576171875,-0.615081787109375,-0.0024566650390625
1758440532489572600,12.027572509765625,-0.7837677001953125,-0.6162261962890625,-0.0020904541015625
1758440532499543600,12.03754345703125,-0.781341552734375,-0.6143798828125,-0.0059051513671875
1758440532509513500,12.047513427734375,-0.7807464599609375,-0.6109466552734375,-0.0077056884765625
1758440532519484400,12.057484375,-0.7822418212890625,-0.614593505859375,-0.0075225830078125
1758440532529454600,12.06745458984375,-0.7809906005859375,-0.6173553466796875,-0.003570556640625
1758440532539425300,12.07742529296875,-0.7772979736328125,-0.6181793212890625,-0.0020751953125
1758440532549395500,12.0873955078125,-0.775390625,-0.6156463623046875,-0.002716064453125
1758440532559366400,12.097366455078125,-0.7781982421875,-0.613525390625,-0.004608154296875
1758440532569336300,12.10733642578125,-0.7818756103515625,-0.6118011474609375,-0.0041656494140625
1758440532579307500,12.1173076171875,-0.7852783203125,-0.6130828857421875,-0.003143310546875
1758440532589277400,12.12727734375,-0.791259765625,-0.6147308349609375,-0.003387451171875
1758440532599248400,12.137248291015625,-0.7883758544921875,-0.61676025390625,-0.0034942626953125
1758440532609218300,12.14721826171875,-0.786285400390625,-0.6154937744140625,-0.0030975341796875
1758440532619189500,12.157189453125,-0.78167724609375,-0.6155242919921875,-0.005767822265625
1758440532629159400,12.167159423828124,-0.7796630859375,-0.6172332763671875,-0.0046539306640625
1758440532639130400,12.17713037109375,-0.7799224853515625,-0.616943359375,-0.00384521484375
1758440532649100500,12.1871005859375,-0.77880859375,-0.6136932373046875,-0.0028076171875
1758440532659071500,12.197071533203125,-0.7747955322265625,-0.61376953125,-0.0005950927734375
1758440532669041400,12.20704150390625,-0.77203369140625,-0.6130523681640625,-0.001007080078125
1758440532679012600,12.2170126953125,-0.7736053466796875,-0.6134490966796875,-0.0039215087890625
1758440532688983600,12.226983642578125,-0.7811126708984375,-0.6154937744140625,-0.00408935546875
1758440532698953500,12.236953369140625,-0.7872467041015625,-0.6154022216796875,-0.004852294921875
1758440532708924400,12.24692431640625,-0.791778564453125,-0.6147003173828125,-0.004791259765625
1758440532718894600,12.25689453125,-0.787628173828125,-0.61407470703125,-0.0028076171875
1758440532728864500,12.266864501953124,-0.78411865234375,-0.6147003173828125,-0.001495361328125
1758440532738835500,12.27683544921875,-0.7793121337890625,-0.6138153076171875,-0.0029144287109375
1758440532748806400,12.286806396484375,-0.775177001953125,-0.6147308349609375,-0.005218505859375
1758440532758776300,12.2967763671875,-0.7736358642578125,-0.6151123046875,-0.007171630859375
1758440532768747500,12.30674755859375,-0.7760009765625,-0.6149444580078125,-0.0065155029296875
1758440532778717400,12.316717529296875,-0.7795562744140625,-0.6125030517578125,-0.004486083984375
1758440532788688400,12.3266884765625,-0.7820892333984375,-0.6123199462890625,-0.0038604736328125
1758440532798658300,12.336658203125,-0.781951904296875,-0.611724853515625,-0.0038299560546875
1758440532808629500,12.34662939453125,-0.7819366455078125,-0.6128692626953125,-0.0016937255859375
1758440532818599400,12.356599365234375,-0.783172607421875,-0.6146087646484375,0.0027618408203125
1758440532828570400,12.3665703125,-0.7853240966796875,-0.61761474609375,0.0026397705078125
1758440532838540500,12.37654052734375,-0.7898712158203125,-0.6169586181640625,0.000396728515625
1758440532848511500,12.386511474609375,-0.78662109375,-0.613433837890625,-0.0015716552734375
1758440532858481400,12.3964814453125,-0.784454345703125,-0.6114959716796875,-0.0056610107421875
1758440532868452600,12.40645263671875,-0.7822265625,-0.612823486328125,-0.0078125
1758440532878422500,12.416422607421875,-0.7805938720703125,-0.6155242919921875,-0.0048370361328125
1758440532888393500,12.4263935546875,-0.777435302734375,-0.6190032958984375,-0.003082275390625
1758440532898363400,12.43636328125,-0.77740478515625,-0.6183319091796875,0.000274658203125
1758440532908334600,12.44633447265625,-0.7728118896484375,-0.61553955078125,0.00048828125
1758440532918304500,12.456304443359375,-0.7650299072265625,-0.614715576171875,-0.0024871826171875
1758440532928275500,12.466275390625,-0.7662200927734375,-0.6161346435546875,-0.0031890869140625
1758440532938245600,12.47624560546875,-0.7752685546875,-0.6165008544921875,-0.0062103271484375
1758440532948216300,12.48621630859375,-0.7824249267578125,-0.6095123291015625,-0.0068359375
1758440532958186500,12.4961865234375,-0.788909912109375,-0.6060791015625,-0.0049591064453125
1758440532968157400,12.506157470703124,-0.78790283203125,-0.609954833984375,-0.0057373046875
1758440532978127400,12.51612744140625,-0.7830352783203125,-0.61639404296875,-0.0070648193359375
1758440532988098300,12.526098388671874,-0.7788848876953125,-0.6161041259765625,-0.006622314453125
1758440532998068200,12.536068115234375,-0.7781982421875,-0.6152191162109375,-0.0085601806640625
1758440533008039400,12.546039306640624,-0.7791290283203125,-0.6146240234375,-0.005950927734375
1758440533018009300,12.55600927734375,-0.7814788818359375,-0.6138153076171875,-0.0037689208984375
1758440533027980500,12.56598046875,-0.785308837890625,-0.617431640625,-0.001678466796875
1758440533037950500,12.575950439453125,-0.788482666015625,-0.62115478515625,0.001007080078125
1758440533047921400,12.58592138671875,-0.7885894775390625,-0.62188720703125,0.0021209716796875
1758440533057891300,12.595891357421875,-0.7871551513671875,-0.6231689453125,0.0012054443359375
1758440533067862500,12.605862548828124,-0.7847442626953125,-0.6192626953125,0.001312255859375
1758440533077832400,12.61583251953125,-0.7806854248046875,-0.6151885986328125,0.0005035400390625
1758440533087803400,12.625803466796874,-0.7806396484375,-0.6102294921875,-0.0040740966796875
1758440533097773600,12.635773681640625,-0.784698486328125,-0.6077880859375,-0.008087158203125
1758440533107744500,12.64574462890625,-0.785400390625,-0.6070098876953125,-0.0084991455078125
1758440533117714400,12.65571435546875,-0.7847137451171875,-0.6116180419921875,-0.0089569091796875
1758440533127685600,12.665685546875,-0.7820892333984375,-0.6158905029296875,-0.0093994140625
1758440533137655600,12.675655517578125,-0.7758941650390625,-0.6165771484375,-0.00811767578125
1758440533147626500,12.68562646484375,-0.7713165283203125,-0.6154022216796875,-0.006500244140625
1758440533157596400,12.695596435546875,-0.7691802978515625,-0.6180572509765625,-0.0054473876953125
1758440533167567600,12.705567626953124,-0.7705078125,-0.6180267333984375,-0.0031280517578125
1758440533177538300,12.715538330078125,-0.7769012451171875,-0.618896484375,-0.0027923583984375
