time,seconds_elapsed,z,y,x
1758440520488869600,0.02686962890625,-0.11749825217723846,0.06536591387987137,-0.003286136398045346
1758440520498839600,0.036839599609375,-0.2683879018247127,0.0731067372649908,-0.059696325544547284
1758440520508809700,0.046809814453125,-0.42494799832403657,0.09469780682623385,-0.10006318805059418
1758440520518780700,0.05678076171875,-0.5388280600041151,0.16361410666406154,-0.10698650277405977
1758440520528750600,0.06675048828125,-0.507848399850726,0.23991116440296173,-0.15173849416230803
1758440520538721800,0.0767216796875,-0.26964520840942857,0.2494441319018602,-0.20466060373103245
1758440520548691700,0.086691650390625,0.07182137362957,0.18793956962525843,-0.15927867127563802
1758440520558661600,0.09666162109375,0.2769248440235853,0.10479249986112117,-0.09099055893928744
1758440520568632600,0.106632568359375,0.2570002463698387,0.03360065630674362,-0.09506759911985135
1758440520578602800,0.116602783203125,0.17694705096781252,0.010930559337139129,-0.08023141977945342
1758440520588573700,0.12657373046875,0.10291209294199943,-0.00032440964877605437,-0.0744410363423638
1758440520598543600,0.136543701171875,0.05282207412719726,-0.04164075489938259,-0.05679668141317088
1758440520608513500,0.146513427734375,0.07110241170525551,-0.07433949393033981,-0.025183308199816384
1758440520618484700,0.156484619140625,0.15380641387701033,-0.09344225380718707,0.011416012758034048
1758440520628454700,0.16645458984375,0.2811164504945278,-0.11270225007236004,0.07023056077416986
1758440520638425600,0.176425537109375,0.22293431063890456,-0.1012093806773424,0.08348003717870452
1758440520648395800,0.186395751953125,0.16285598177313804,-0.05618541308045387,0.0936358218842186
1758440520658365700,0.19636572265625,0.17215455599427223,0.007386603119969367,0.11390237397658638
1758440520668336600,0.206336669921875,0.1497960091918707,0.014014496827125548,0.06971078838349785
1758440520678306800,0.216306884765625,0.09123217654228209,-0.010196399843692779,0.03821896604044595
1758440520688277800,0.22627783203125,0.03827624690234661,-0.02896072154641151,0.025634257704555054
1758440520698247700,0.23624755859375,0.06115852531790733,-0.0344511356562376,0.01239631304925424
1758440520708217600,0.246217529296875,0.11310147852301597,-0.02037526403069496,0.010083665892441057
1758440520718188800,0.256188720703125,0.1534410876959562,0.010562895068526267,-0.030275014448794536
1758440520728158700,0.26615869140625,0.1338788936138153,0.03157236534953117,-0.049917182998545466
1758440520738129700,0.276129638671875,0.1458171686887741,0.0535351908326149,-0.056904452636581844
1758440520748099800,0.286099853515625,0.12073007370531558,0.030014614513516426,-0.05898219505897723
1758440520758069800,0.29606982421875,0.09331775064468384,0.03521159863471985,-0.057443304187059396
1758440520768040700,0.306040771484375,0.0814157159268856,0.03444938209056854,-0.011260610992123839
1758440520778010600,0.3160107421875,0.08233224624991417,-0.005161912807822227,0.0023732285124307964
1758440520787981800,0.32598193359375,0.05496902302801609,-0.017064532047510145,0.002805030929527129
1758440520797951700,0.33595166015625,-0.00020808979272842406,-0.010062544330954552,-0.023159917180007324
1758440520807921700,0.345921630859375,-0.054776130804419516,0.030451252365112303,-0.05099734748464543
1758440520817892900,0.355892822265625,-0.09190203862786292,0.06645604720413685,-0.06405558933313005
1758440520827862800,0.36586279296875,-0.054200961264967915,0.09647650693655013,-0.033867974606575445
1758440520837833700,0.375833740234375,-0.04007306719124317,0.06805354552865028,-0.0022176206797215854
1758440520847803600,0.3858037109375,0.004082300877571106,-0.002205401089787483,0.02485342322490178
1758440520857773800,0.39577392578125,0.11524725838005542,-0.04366553872525692,0.03432261847232002
1758440520867744800,0.405744873046875,0.09814064075648785,-0.08397183015048504,0.0029129088966816197
1758440520877714700,0.415714599609375,0.1021767644047737,-0.09979542222619056,-0.012406047850335016
1758440520887686000,0.425685791015625,0.08455576751828194,-0.055741760966181754,0.03414322733440203
1758440520897655800,0.43565576171875,0.06718026982545852,-0.033055297383666034,0.04289459088537842
1758440520907625700,0.445625732421875,0.09631225628554821,0.018100304836034774,-0.00978643651153543
1758440520917597000,0.455596923828125,0.09216799608767032,0.058065235477685925,-0.039279140334576364
1758440520927566800,0.46556689453125,0.10059504817128181,0.06551613600552082,-0.05855289113046601
1758440520937537800,0.475537841796875,0.06673369510173797,0.04988602067530155,-0.030117823726241475
1758440520947507700,0.4855078125,0.030839959421753882,0.022810966745018958,0.004800790731961024
1758440520957478000,0.495477783203125,0.0536135167658329,0.04398994837403297,-0.015257479200611122
1758440520967448800,0.50544873046875,0.04318038555681705,0.029881928044557568,-0.03981846680908929
1758440520977418800,0.515418701171875,0.05068447757661342,0.005884381863474846,-0.06798459477855358
1758440520987389700,0.5253896484375,0.09121814801692962,-0.0013449848681688307,-0.057655969690205526
1758440520997359900,0.53535986328125,0.14754969156980513,0.01720072564780712,0.04065079401396215
1758440521007329800,0.545329833984375,0.1954044986784458,0.02879647089540958,0.09578395809512585
1758440521017300500,0.555300537109375,0.18033493984043597,-0.05038520236909389,0.03618413802788127
1758440521027271000,0.56527099609375,0.1463660347431898,-0.09491875610053539,-0.026359103663673156
1758440521037241600,0.57524169921875,0.060330842322111125,-0.05320610500872135,-0.04936400609519332
1758440521047211500,0.58521142578125,0.00022211831808090208,0.013368600139021873,-0.0720741610805504
1758440521057181700,0.595181640625,0.03296586553454399,0.06593348463475704,-0.029144167804939204
1758440521067152600,0.605152587890625,0.06595628098845481,0.04853402154445648,0.01188968212630134
1758440521077122800,0.615122802734375,0.0584060117393732,0.03366086206138134,0.032317279132432306
1758440521087093500,0.625093505859375,0.05972177051305771,0.0281377147257328,0.015541057940432802
1758440521097063700,0.635063720703125,0.03272328895032406,0.009234861335158348,-0.04883271679666359
1758440521107033900,0.645033935546875,-0.010884382107853889,-0.010969137781858443,-0.06962090444322674
1758440521117004500,0.655004638671875,0.019597849917411803,-0.0005143792629241943,-0.044828312594047744
1758440521126974500,0.664974365234375,0.046694531157612795,-0.009202128109335898,-0.03965551306603011
1758440521136945700,0.674945556640625,0.03696691786944866,0.007339841368794441,-0.023072690987703388
1758440521146915600,0.68491552734375,0.08023439718782902,0.02078092222213745,-0.04534449565499089
1758440521156885500,0.694885498046875,0.11108195539414882,0.03185995011925697,-0.023066864035115577
1758440521166856700,0.704856689453125,0.047888124856352805,0.008526420804858208,0.021534425736870616
1758440521176826600,0.71482666015625,-0.010902502286434173,-0.026633155381679534,0.017137481977645076
1758440521186797600,0.724797607421875,0.036571196550130844,0.01405365979373455,-0.05919388331458904
1758440521196767700,0.734767822265625,0.09650339494347572,0.03758884916007518,-0.055479411102412265
1758440521206737700,0.744737548828125,0.16280629741251468,0.009269348126649856,-0.009071412118466104
1758440521216708600,0.75470849609375,0.17073182971477507,-0.000779167678952217,0.013828221573983319
1758440521226678500,0.764678466796875,0.15688918232321739,0.007814473143219947,0.042076570767071095
1758440521236649700,0.774649658203125,0.12480009962320326,0.005846387940645218,0.06384538064855151
1758440521246619600,0.78461962890625,0.06486673218607902,-0.001329202777147293,0.05612797467163764
1758440521256589600,0.794589599609375,-0.010166589227318763,-0.01792787087857723,0.013310061185085214
1758440521266560800,0.804560791015625,-0.04216974720954895,0.004818213936686516,-0.04977695711052511
1758440521276530700,0.81453076171875,-0.0317541516572237,0.018100304836034774,-0.1008707415738143
1758440521286501600,0.824501708984375,-0.002625087806582451,0.04027823437452316,-0.12188362765461205
1758440521296471600,0.834471435546875,0.014362287351489067,0.05743161374926567,-0.09706438982710242
1758440521306442800,0.84444287109375,0.023698855495452878,0.06001227789223194,-0.04259845748301595
1758440521316412700,0.85441259765625,0.06074819095134735,0.052364393487572665,0.0009199484061100519
1758440521326382600,0.864382568359375,0.03099251963496208,0.01990998460650444,0.049545522974827325
1758440521336353800,0.874353759765625,0.035790275305509565,-0.015481646770238876,0.06045893024776596
1758440521346323700,0.88432373046875,0.04830898061692714,-0.026588147196173667,0.04893851525869686
1758440521356294700,0.894294677734375,0.026057401320338246,-0.056258478316664695,0.022812505681556648
1758440521366264600,0.9042646484375,0.0015548282265663146,-0.09393091410696507,0.017612158276198896
1758440521376234800,0.91423486328125,0.04994096573293209,-0.08314239358901977,0.008166960392298642
1758440521386205700,0.924205810546875,0.12039222005307673,-0.013779519027471541,0.018533367057633584
1758440521396175600,0.934175537109375,0.17664309958517552,0.05851531733274459,0.0012116864778567104
1758440521406146800,0.944146728515625,0.23235271184742448,0.04454524416923523,-0.030098644101736134
1758440521416116700,0.95411669921875,0.2161316448867321,0.003957797715067863,-0.03858645906241145
1758440521426086700,0.964086669921875,0.1782335836470127,0.007116554006934166,0.0011156833240529521
1758440521436057900,0.974057861328125,0.13670856408178805,0.01960194157063961,0.017270863707992246
1758440521446027800,0.98402783203125,0.09544248771369457,0.013543956705927849,-0.017236367783346213
1758440521455998700,0.993998779296875,0.019616554617881775,0.0060930561780929565,-0.05408750921944156
1758440521465968600,1.00396875,-0.054064183142781254,0.0277238732278347,-0.08968291040682233
1758440521475939000,1.01393896484375,-0.10749532907903193,0.04873568159639835,-0.049926946340734135
1758440521485910000,1.023909912109375,-0.1145727201193571,0.03698386900424957,-0.04638968472583219
1758440521495880200,1.033880126953125,0.005053776258230209,0.05273614940941333,-0.07007684065033681
1758440521505851100,1.04385107421875,0.10769815817475319,0.044780221968889235,-0.04540994384032674
1758440521515821000,1.053821044921875,0.14498305595219135,0.017325813332200048,0.0003588302248972468
1758440521525792000,1.0637919921875,0.1491723243355751,-0.018026070556044577,0.0048118458446930155
1758440521535762200,1.07376220703125,0.13309271167218684,-0.03787351132035255,0.027636439256265292
1758440521545732000,1.083732177734375,0.09625789574980735,-0.03132511259019374,0.043449055563518774
1758440521555703000,1.093703125,0.02941664862036705,-0.06388882706463336,0.024392655579047275
1758440521565673200,1.103673095703125,-0.056333881640434263,-0.07319675363600253,0.027517130575398913
1758440521575644000,1.113643798828125,-0.049962008520960804,-0.022956512695550917,0.022782197308260945
1758440521585614000,1.123614013671875,-0.013977671948075294,0.05637012199759483,0.020113304609281474
1758440521595584000,1.133583984375,0.06425707585513592,0.07401800689101219,-0.020279306542663834
1758440521605555000,1.143554931640625,0.14506196640729904,0.07012509110569953,-0.042434426027722655
1758440521615525000,1.153525146484375,0.1929652888327837,0.05465630381703376,-0.022032586800644637
1758440521625496000,1.16349609375,0.21473814470171926,0.025506781700253486,-0.022425132065475917
1758440521635466000,1.173466064453125,0.19083762915432453,-0.006783376529812812,-0.015843445270357186
1758440521645436200,1.183436279296875,0.1383925716459751,-0.05446399611532688,-0.04289307478172704
1758440521655406800,1.19340673828125,0.08683715645372866,-0.06189093124568462,-0.018560476543556432
1758440521665377000,1.203376953125,0.08503332190215587,-0.043673137509822844,-0.001200167286710348
1758440521675348000,1.213347900390625,0.06278875686824321,0.006751812347769737,-0.02716442869718885
1758440521685318000,1.22331787109375,0.05727028570771217,0.050071898636221884,-0.06898637853250839
1758440521695288000,1.2332880859375,0.018541618862748147,0.04976911629736423,-0.048504927880712784
1758440521705259000,1.243259033203125,-0.015835867035388945,0.07303308750689029,-0.0018061931887292302
1758440521715229000,1.25322900390625,-0.03209668148458004,0.04518821824789047,0.053777840482071036
1758440521725200000,1.263199951171875,-0.04600421080589294,-0.021513912671804428,0.051355097714019936
1758440521735170000,1.273170166015625,0.03040507513582706,-0.030079496443271635,0.006007015012588817
1758440521745141000,1.28314111328125,0.08643442087173461,-0.012762450939416884,-0.028479128024948293
1758440521755111000,1.29311083984375,0.03944353711605072,0.0038163434177637097,-0.00700747217584867
1758440521765080800,1.303080810546875,0.015629530808329583,0.004704232168197631,-0.007134820315986871
1758440521775052000,1.313052001953125,0.05808510922193527,0.017476619979739188,-0.007256462517834733
1758440521785022000,1.32302197265625,0.13502163390815258,0.014119126245379447,-0.017132688213163053
1758440521794993000,1.332992919921875,0.19406185189783573,-0.014230185404419898,-0.02354606238680426
1758440521804963000,1.342963134765625,0.14710136328041554,-0.02941781766414642,-0.018091290412517263
1758440521814933000,1.35293310546875,0.10285773240625858,0.0041834231644868845,0.0021811046154587527
1758440521824904000,1.362904052734375,0.07101707150936126,0.04233224429488182,-0.007151031665271148
1758440521834873900,1.372873779296875,0.002741407662630081,0.04099135107994079,-0.008856109416950494
1758440521844845000,1.382844970703125,0.0011164368093013763,0.03456628646850586,0.0012100219604442826
1758440521854815000,1.39281494140625,0.0742524001687765,0.055419104883074756,-0.0039039920184644867
1758440521864785000,1.402784912109375,0.11168985815942287,0.022173253363370893,0.008951669612759724
1758440521874756000,1.412756103515625,0.09144026633501053,-0.03163257110416889,-0.025792140263563485
1758440521884726000,1.42272607421875,0.06443769311904907,-0.0326385332763195,-0.042093878094898535
1758440521894697000,1.432697021484375,0.037215339672565455,-0.005579261437058449,-0.033111217405542265
1758440521904667100,1.442667236328125,0.03710369599163532,0.02394903086423874,-0.0015517983025521971
1758440521914638000,1.45263818359375,0.06795593037307263,0.02352583701610565,0.004949525865889154
1758440521924608000,1.46260791015625,0.10285422527492045,0.03058686144351959,-0.004125459599285387
1758440521934578000,1.472577880859375,0.13408230723142622,0.03783084122240543,-0.023391803406854157
1758440521944549000,1.482549072265625,0.10954057117104529,-0.0018137714236974715,-0.026823691251408308
1758440521954519000,1.49251904296875,0.03518529514968395,-0.04181844955384731,-0.02009773029752541
1758440521964490000,1.502489990234375,-0.04807517186105251,-0.026402269235253333,-0.021007513502647634
1758440521974460200,1.512460205078125,-0.061139236095547674,0.022029460978507994,0.02076503738312749
1758440521984430000,1.52243017578125,-0.017480711632966994,0.03120820821225643,0.033079189715906974
1758440521994401000,1.532401123046875,0.05185001422464847,0.03740180215537548,0.015200653854792471
1758440522004371000,1.542370849609375,0.07445230665504932,0.034627076745033264,-0.02884453868768178
1758440522014342100,1.552342041015625,0.09650514850914478,0.044136663368344306,-0.06624567868935409
1758440522024312000,1.56231201171875,0.11101415085494518,0.05219254405200481,-0.048046630753157654
1758440522034283000,1.572282958984375,0.13093816398680208,0.013937924459576607,-0.05385886982902884
1758440522044253200,1.582253173828125,0.10321779789030551,-0.05035539175271988,-0.021406230496650094
1758440522054223000,1.59222314453125,0.06516366930603981,-0.07135726324915885,0.025159879375167657
1758440522064194000,1.602194091796875,0.05566869572997093,-0.03540156824886798,0.0580681032882072
1758440522074164200,1.612164306640625,0.06550503008961678,-0.002848375168442726,0.06048271754872985
1758440522084135200,1.62213525390625,0.09922317529618739,0.01571662456989288,0.024066725260042585
1758440522094105000,1.63210498046875,0.16949205878674983,0.04901449853777885,-0.0043270397361251526
1758440522104075000,1.642074951171875,0.1834194618523121,0.038942601856589314,-0.00592845161735313
1758440522114046200,1.652046142578125,0.16883797879219054,0.005887304472923278,-0.0392632121130824
1758440522124016000,1.66201611328125,0.1105553011715412,0.009955576825141907,-0.03522970511356834
1758440522133987000,1.671987060546875,-0.0035118075132369994,0.028795886373519895,-0.01993350704598706
1758440522143957200,1.681957275390625,-0.11305120964050293,0.010998363876342773,-0.041260240282351146
1758440522153928000,1.691927978515625,-0.09320727600753306,0.03553893089294433,-0.07513378611318766
1758440522163898000,1.701898193359375,-0.015936404800415038,0.06363923621773719,-0.05093021423229947
1758440522173868000,1.711867919921875,0.04269172525703907,0.03188157742917538,-0.035859885926020796
1758440522183839000,1.7218388671875,0.11302782876491546,-0.0036971009522676467,-0.01624590685771545
1758440522193809200,1.73180908203125,0.16605390103161333,-0.014980711510777473,0.01696669541293522
1758440522203779800,1.74177978515625,0.12934066566228866,-0.033953707528114316,0.021789647173532285
1758440522213750000,1.75175,0.09368833752274512,-0.06375964772701263,0.023984910461795513
1758440522223720200,1.76172021484375,0.07573065602779389,-0.0421019426703453,0.009670674919558224
1758440522233691000,1.77169091796875,0.08847674035429955,0.0009147767573595046,0.015237017509539146
1758440522243660800,1.781660888671875,0.09837620307803153,0.004578559961915016,0.013967643744405359
1758440522253632000,1.791632080078125,0.07744038255512714,0.032275545182824134,-0.0025444169359398073
1758440522263602000,1.801601806640625,0.011432663640379905,0.05372925209999084,-0.032682676095433995
1758440522273572900,1.81157275390625,-0.030060791742801664,0.060256023520231246,-0.043377679960895324
1758440522283543000,1.82154296875,-0.027283143723011015,0.02876607575714588,-0.045501056189881636
1758440522293513000,1.831512939453125,0.025250761112570762,0.02834521999657154,-0.007116764069488271
1758440522303484000,1.84148388671875,0.07941548202037811,0.005761632266640663,0.01360176729079103
1758440522313454000,1.8514541015625,0.08753566011190414,0.0023889409631490705,-0.0002668502256623469
1758440522323425000,1.861425048828125,0.11798515891134738,-0.003605331015586853,-0.0037982460720697416
1758440522333395000,1.87139501953125,0.1594938118636608,-0.00030687399208545685,-0.028576028511184265
1758440522343366100,1.8813662109375,0.10795534780621528,-0.005987257716059685,-0.045340655163512565
1758440522353336000,1.891336181640625,0.06854395939409733,-0.025709026274085042,-0.04466813989654183
1758440522363306000,1.901305908203125,0.09598200141787529,0.013123100945353508,-0.008179102921241427
1758440522373277000,1.91127685546875,0.10602350296080112,0.011640168911218643,0.03157653235128382
1758440522383247000,1.9212470703125,0.1509714827120304,0.010407412245869637,0.019742583017190916
1758440522393218000,1.931218017578125,0.14899053802788256,0.009514262798428534,0.007655549404595513
1758440522403188000,1.94118798828125,0.09683774146437645,-0.010631284129619598,-0.002194694749393966
1758440522413159200,1.9511591796875,0.07410393160879611,0.002966448590159416,-0.04228478842396289
1758440522423129000,1.961129150390625,0.049321957051753997,0.02346621578335762,-0.027937013655016198
1758440522433099000,1.97109912109375,0.0079167644739151,0.039644028124213214,-0.025592692718305624
1758440522443070000,1.981070068359375,-0.008806406790018081,0.021833646145462987,-0.014135402668389724
1758440522453040000,1.9910400390625,-0.006857610809803009,0.006983283016085624,-0.0005546781656274106
1758440522463011000,2.001010986328125,0.033786534267663954,0.007584756040573119,-0.008710703888669376
1758440522472981000,2.01098095703125,0.11029285084307193,0.02276069786250591,-0.02541544102183543
1758440522482951200,2.020951171875,0.1503355228960514,0.0006885667860507964,-0.03484789815517142
1758440522492921000,2.030921142578125,0.16133856294751167,-0.020215105032920837,-0.03552104132651584
1758440522502891000,2.04089111328125,0.15672902332544325,-0.0011760580420494078,-0.012487924297375138
1758440522512862200,2.0508623046875,0.10206278263628482,-0.008448679393529892,0.0103457018040237
1758440522522832100,2.06083203125,0.01082066922187805,-0.0036328035444021223,0.020193829349451697
1758440522532803000,2.070802978515625,-0.06650806965231895,0.0024216741889715194,0.015531306014687288
1758440522542773200,2.080773193359375,-0.08281330776512623,0.031933015355467796,-0.0038667995299445463
1758440522552744200,2.090744140625,-0.04509937092065811,0.040760464933514595,-0.012551229616330237
1758440522562714000,2.100714111328125,-0.001450198808312416,0.03771744397580623,-0.044717152970307504
1758440522572685300,2.110685302734375,0.0638788901925087,0.025828268739581106,-0.04960780195554253
1758440522582655200,2.1206552734375,0.10702478895783424,0.05064414556622505,-0.02533254622806562
1758440522592625200,2.130625244140625,0.1652279716014862,0.035388124245405196,-0.007834171074244658
1758440522602596000,2.14059619140625,0.1948556326240301,-0.013801730859279632,-0.02078313472882146
1758440522612566300,2.150566162109375,0.19670096822977065,-0.030059622699022293,-0.022968244232540017
1758440522622537200,2.160537109375,0.11406944677233695,-0.04461129514276981,0.03224999974961392
1758440522632507100,2.170507080078125,0.04715981058180332,-0.04660685287415981,0.02451027462632628
1758440522642478300,2.180478271484375,0.0320721315652132,0.009248889860510826,-0.00969492572811432
1758440522652448300,2.1904482421875,0.02901274399459362,0.027063948014378544,0.007019636396033456
1758440522662419200,2.200419189453125,0.038380291798710824,0.03177928609848022,0.013308925248990999
1758440522672389400,2.210389404296875,0.07692132711708545,0.0450344889909029,-0.023795564185443797
1758440522682360000,2.220360107421875,0.09968202497959136,0.0608808774203062,-0.04265416515904944
1758440522692330200,2.230330322265625,0.11793313646316528,0.053744449669122694,-0.06556008474510162
1758440522702300200,2.240300048828125,0.10170563976168633,0.02940086652934551,-0.044853095408855
1758440522712271000,2.25027099609375,0.06025543899834156,-0.038760231027007104,-0.018469728378538275
1758440522722241300,2.2602412109375,0.03294657631218433,-0.04240940118432045,0.015084399072470842
1758440522732212000,2.2702119140625,0.05966156475841999,-0.019243045130372047,0.056156018022610804
1758440522742182100,2.28018212890625,0.04297931002676487,-0.033148236364126206,0.05395227460036985
1758440522752153000,2.290153076171875,0.01447802268564701,-0.0177636202275753,-0.006579843039548723
1758440522762123000,2.300123046875,0.03555295941829681,0.02839256626963615,-0.02705754110647831
1758440522772094200,2.31009423828125,0.09562661210894584,0.03485562480390072,-0.025646571480145212
1758440522782064000,2.320064208984375,0.1335825410157442,0.005632452929019927,-0.014188913820759626
1758440522792035000,2.33003515625,0.13234160104393958,0.0038549218624830245,-0.00981838999429019
1758440522802005000,2.3400048828125,0.11890753445327282,0.017655483677983284,0.014507618672889657
1758440522811975200,2.34997509765625,0.09892799174189568,0.008063479468226432,-0.02318552197872195
1758440522821946000,2.359946044921875,0.11263736814260482,0.003384381741285324,-0.038285122045257594
1758440522831916000,2.369916015625,0.09004618162810801,0.0129927525639534,-0.05949181138181593
1758440522841887200,2.37988720703125,0.08566752815246581,0.023923896422982215,-0.07684757689428515
1758440522851857200,2.389857177734375,0.06025894612967968,0.029908231529593467,-0.08731312166871502
1758440522861828000,2.399828125,0.0005699088424444198,0.032281390401721,-0.027621951789897865
1758440522871798300,2.40979833984375,-0.03731938456892967,0.018218962779641152,0.005807506960182217
1758440522881769200,2.419769287109375,-0.03959025211036205,-0.00022504092752933502,0.00529813951580436
1758440522891739100,2.4297392578125,-0.0006008885025978088,-0.004854454293847084,0.02623127374963369
1758440522901709000,2.439708984375,0.05130348625779152,-0.03879764042794704,0.03510749437285121
1758440522911680300,2.44968017578125,0.07041618300676346,-0.04297697193920612,0.03953784150311258
1758440522921650200,2.459650146484375,0.04811667291522026,-0.027938977283239363,0.04259704184406437
1758440522931621000,2.46962109375,0.06247603765726089,0.009922843599319458,0.012381786766980075
1758440522941591300,2.47959130859375,0.05448620794713497,0.020316227319836615,-0.03364611201682128
1758440522951562200,2.489562255859375,0.04921674311161041,0.026114684465527532,-0.054781117506790905
1758440522961532200,2.4995322265625,0.048398412466049194,0.04022971905767917,-0.03383409060328267
1758440522971503400,2.50950341796875,0.06419570105671882,0.05052724118828773,-0.044436618995876045
1758440522981473300,2.519473388671875,0.09075929833352565,0.06801847421526909,-0.05994075615913607
1758440522991444200,2.5294443359375,0.09856149651706218,0.057636196410655975,-0.05234648337154649
1758440523001414100,2.5394140625,0.10892097796797752,0.024562194326519966,-0.04114777461751364
1758440523011384300,2.54938427734375,0.10254559771716594,-0.00727320587337017,-0.00955514279808849
1758440523021355300,2.559355224609375,0.1250648880392313,-0.041485272076725956,0.009469844843033934
1758440523031325200,2.5693251953125,0.16101707590818404,-0.03528992456793785,0.005140306047501508
1758440523041296100,2.579296142578125,0.10707155070900916,-0.014402034839987754,-0.008768034982919925
1758440523051266300,2.589266357421875,0.056281274670362466,-0.010552373674511908,0.016796130327222634
1758440523061237000,2.599237060546875,0.0017459668844938276,0.020536592072248457,0.00061960119457799
1758440523071207200,2.609207275390625,-0.030108138015866277,0.04052431809008121,-0.009559724216727771
1758440523081178000,2.61917822265625,0.014170564171671866,0.07477379369437694,-0.02333390834031161
1758440523091148000,2.62914794921875,0.04649053301811218,0.058356327378749843,-0.030129192220338153
1758440523101119000,2.639118896484375,0.07466331905722617,0.025275895553827286,-0.020443283199029973
1758440523111089200,2.649089111328125,0.06471651006042957,-0.019150690671801567,-0.019607932920008897
1758440523121060000,2.65906005859375,0.06462006394863128,-0.0310351897329092,-0.009070084386126836
1758440523131030000,2.669030029296875,0.07628186016976833,-0.03173310886919498,-0.026116081838170064
1758440523141000200,2.679000244140625,0.06970657343268394,-0.028491934990882872,0.00689752840330475
1758440523150971100,2.68897119140625,0.07987550074756145,0.004805938977003097,-0.012158137503871694
1758440523160941000,2.698941162109375,0.0669458765476942,0.05156652110815048,-0.03334771359213628
1758440523170912300,2.708912353515625,0.019737550649046896,0.04922258833050728,0.0016878674636187497
1758440523180882200,2.718882080078125,0.013503624695539474,0.03415770566761493,-0.0028888350429944693
1758440523190853000,2.72885302734375,0.04228372897803783,0.007011924588680267,-0.00712992380351643
1758440523200823000,2.738822998046875,0.08364800502359866,0.023355741146206855,-0.011911416750785428
1758440523210794200,2.748794189453125,0.12976970472931862,0.002777063497900963,-0.018830163755343528
1758440523220764200,2.75876416015625,0.1446095464646816,-0.011250292810797691,-0.0132845009104989
1758440523230734000,2.768734130859375,0.11488427028656005,-0.01914133832156658,-0.014005836313345935
1758440523240705300,2.778705322265625,0.0696428605467081,0.010876783323287963,-0.013960962841869332
1758440523250675200,2.78867529296875,0.07084405303001404,0.025821254476904868,0.003302129693265306
1758440523260646100,2.798646240234375,0.11593290255665778,0.01960486418008804,-0.020202914554916785
1758440523270616000,2.808615966796875,0.062433952081203455,0.011031681624054908,-0.04919110178027768
1758440523280587300,2.818587158203125,-0.03641571372747421,-0.027452655071020123,-0.012738641947210999
1758440523290557200,2.82855712890625,-0.10345043760240077,-0.020170681369304656,0.01510145409690449
1758440523300528000,2.838528076171875,-0.10481120456159114,0.02818798360824585,0.013884383624454493
1758440523310498300,2.848498291015625,0.012687047615647316,0.03553250115215778,-0.03156066806187154
1758440523320469200,2.85846923828125,0.11284487341344356,0.03601005553603172,-0.028103944886871613
1758440523330439200,2.868439208984375,0.16648001748919486,0.03979191216230392,-0.016176051925320643
1758440523340409000,2.8784091796875,0.20336334872841832,0.025113398468494415,-0.02150997399891494
1758440523350380300,2.88838037109375,0.19429507613182068,-0.005456511840224266,-0.04519643352038692
1758440523360350200,2.89835009765625,0.18901216729283332,-0.026882746228575706,-0.026703327691194136
1758440523370321200,2.908321044921875,0.17763970940709112,-0.013091536763310431,0.015693481156323102
1758440523380291300,2.918291259765625,0.12291969270408153,0.003443418452143669,-0.0006802795899624471
1758440523390262000,2.928261962890625,0.054769701063632964,0.02580722595155239,-0.011212602565356064
1758440523400232200,2.938232177734375,0.005785597664117813,0.05477788437008858,-0.0036165881993627407
1758440523410203100,2.948203125,-0.061928340646624565,0.04884440266788006,-0.03271748483062256
1758440523420173000,2.958173095703125,-0.07930968355834483,0.040267128458619114,-0.04740898130359128
1758440523430144000,2.96814404296875,-0.05483166038393974,0.0024894787281751632,-0.016297430407331556
1758440523440114200,2.9781142578125,-0.010973813956975937,-0.03485971645712852,0.0429844154601451
1758440523450084000,2.988083984375,0.0382592957675457,-0.07589549120068549,0.04355796386466827
1758440523460055000,2.998054931640625,0.08659282630383967,-0.04615034127831459,0.03407321942166891
1758440523470025000,3.00802490234375,0.13741291295886038,0.0027039982616901396,0.013797296712757088
1758440523479996200,3.01799609375,0.15479133326113223,0.020217443120479583,-0.02497530517205596
1758440523489966000,3.027966064453125,0.15552666179835795,0.009144844964146614,-0.027268580908118744
1758440523499937000,3.03793701171875,0.13116729656755924,0.01899579237103462,-0.017597875164163997
1758440523509907200,3.0479072265625,0.1153787758052349,0.02509177115857601,-0.002377372966708208
1758440523519878100,3.057878173828125,0.11632920839786529,0.03623042028844356,-0.004613124385219998
1758440523529848000,3.06784814453125,0.04341828596591949,0.01280453651547432,-0.0510015304694185
1758440523539819300,3.0778193359375,0.025198154142498968,0.01806523352265358,-0.06345789743461645
1758440523549789200,3.0877890625,0.0115156657487154,0.05208440750241279,-0.05074676569048315
1758440523559759000,3.097759033203125,-0.006290624576807022,0.06856149505078792,-0.021764738777850286
1758440523569730000,3.10772998046875,0.011389993542432784,0.04940495916008949,-0.027943050670158117
1758440523579700200,3.1177001953125,0.036349662753939624,0.03637947337031364,-0.00986425783796585
1758440523589671200,3.127671142578125,0.04674012386500835,-0.003850830209255218,0.0011826653085270664
1758440523599641000,3.13764111328125,0.06481880139112473,-0.032412323305010794,-0.013500552530685671
1758440523609612300,3.1476123046875,0.09133446787297725,-0.04474456613361835,0.0029051908102846937
1758440523619582200,3.157582275390625,0.09917641354501247,-0.04279752371907234,0.022939906337333376
1758440523629553200,3.16755322265625,0.08876432512402534,-0.02088672068417072,0.004509757340168289
1758440523639523300,3.1775234375,0.07176409048438072,0.015986089161038396,0.004496477448075893
1758440523649494300,3.187494384765625,0.05659457840323448,0.031523850032687185,0.005715784972562687
1758440523659464200,3.197464111328125,0.062357379713654515,0.04177461041212081,-0.012238622286490862
1758440523669434000,3.20743408203125,0.034878421157598496,0.030514380729198452,-0.0186495339333429
1758440523679405300,3.2174052734375,0.0073977090358734125,0.026487609431147575,-0.023626676175231114
1758440523689375200,3.227375244140625,0.04870119480490684,0.027727964881062505,-0.02054723219727166
1758440523699346200,3.23734619140625,0.11487374889254569,0.041839492341876026,-0.015077915674401447
1758440523709316400,3.24731640625,0.13010346672832965,0.015624270111322402,-0.01618575133542763
1758440523719287000,3.257287109375,0.11315934619009495,-0.018117255970835685,-0.023467213580489622
1758440523729257200,3.26725732421875,0.12131401107311247,-0.020543606334924698,-0.025818765692296436
1758440523739228200,3.277228271484375,0.13171265549063682,-0.006885667860507965,-0.02133743272689171
1758440523749198000,3.287197998046875,0.0853325971096754,-0.008818681749701499,-0.030854106678115202
1758440523759169000,3.2971689453125,-0.01444704302549362,0.007935469174385071,-0.017563770823518277
1758440523769139000,3.307138916015625,-0.044080549266934395,0.03087736882269382,0.00035868095490295673
1758440523779110100,3.317110107421875,0.018525836771726607,0.0695686262667179,0.00779917967596557
1758440523789080000,3.327080078125,0.09317746539115905,0.06667699647843837,0.005979008765055914
1758440523799050000,3.337050048828125,0.11375614303946495,0.01752747338414192,-0.014980954681016737
1758440523809021200,3.347021240234375,0.13226035250127316,-0.016692191603779792,-0.008945803273443015
1758440523818991000,3.3569912109375,0.14079261852502822,-0.038192660272121426,-0.03310720338412793
1758440523828962000,3.366962158203125,0.06926058323085307,-0.02432838557064533,-0.03271632263670908
1758440523838932200,3.37693212890625,-0.042649639680981635,-0.01265022273659706,-0.009827807418251176
1758440523848903200,3.386903076171875,-0.07949731508493423,0.03125087831020355,0.00458787749199837
1758440523858873000,3.396873046875,-0.026630817294120788,0.05703004721105098,0.0261753057786962
1758440523868844300,3.40684423828125,0.053704702180624,0.04316577250957489,0.02720655080586439
1758440523878814200,3.416814208984375,0.09319500104784965,0.01623568000793457,-0.020971592805895486
1758440523888784100,3.4267841796875,0.11838146475255489,0.0035118075132369994,-0.045392093089804984
1758440523898755000,3.436755126953125,0.1305494569301605,-0.008620528829097748,-0.036024170826352196
1758440523908725200,3.446725341796875,0.11880290503501892,-0.01859188774526119,-0.047747889835177915
1758440523918696200,3.4566962890625,0.09240063579976558,-0.015562895312905311,-0.024249575580237433
1758440523928666000,3.466666015625,0.0831108294069767,0.01653846234679222,0.014421835519000887
1758440523938637300,3.47663720703125,0.06465981143712997,0.019610709398984908,0.01686465866892249
1758440523948607200,3.486607177734375,0.09409399571418761,0.01774316196143627,0.01766244085844373
1758440523958578200,3.496578125,0.07886486240029335,0.0038444004684686658,0.010111697826971067
1758440523968548000,3.506548095703125,0.064523617836833,0.010348960056900978,-0.020875813414377626
1758440523978519300,3.516519287109375,0.03194645935893058,-0.006883914294838905,-0.03444986158118117
1758440523988489200,3.5264892578125,-0.01915185971558094,-0.01480301685631275,-0.016917416336043968
1758440523998459100,3.536459228515625,0.015628946286439894,-0.008261047866940497,-0.013843022992537589
1758440524008430300,3.546430419921875,0.07148819615244865,0.024832827961444853,0.002885658132274693
1758440524018400300,3.556400146484375,0.10367021783292293,0.012290157252550124,0.014201513007428728
1758440524028371200,3.56637109375,0.09377776937186717,0.014106266763806342,-0.00692315489326138
1758440524038341000,3.576341064453125,0.10308861855268478,0.03718786714375019,-0.011642683953646336
1758440524048312000,3.58631201171875,0.11227438004910945,0.032445056530833245,-0.041247266636346466
1758440524058282200,3.5962822265625,0.082356796169281,0.016540800434350966,-0.07952332630902528
1758440524068253000,3.6062529296875,0.10351590405404568,0.005699672946333885,-0.049793355689477174
1758440524078223000,3.61622314453125,0.09948562562465667,0.015313304466009139,-0.015346800310234538
1758440524088194000,3.626194091796875,0.07696750434637069,-0.02465045713186264,-0.012787303394527407
1758440524098164000,3.6361640625,0.062307695353031156,-0.011557751324772833,0.006409336748518398
1758440524108134100,3.646134033203125,0.08970131371319294,0.028113749328255652,0.0055163888012990355
1758440524118105000,3.65610498046875,0.08288637300133704,0.06291501359641552,-0.014088865821145009
1758440524128075000,3.666074951171875,0.022662498185038564,0.05119418066442012,-0.03699581288708141
1758440524138046200,3.676046142578125,-0.03647533496022224,-0.00015139116942882537,-0.008224271507773665
1758440524148016000,3.68601611328125,-0.07740940289497375,-0.027889292922616004,0.03656489924008492
1758440524157987000,3.695987060546875,-0.036491701573133466,-0.02018237180709839,0.039322468019649386
1758440524167957000,3.70595703125,-0.00935936449766159,-0.01939502082169056,0.010646027324313762
1758440524177928200,3.71592822265625,0.06803834795951842,-0.0008978256225585938,-0.01134816597799072
1758440524187898000,3.725898193359375,0.17914660683870315,0.02816168012320995,-0.008210032349044922
1758440524197869000,3.735869140625,0.2483651044934988,0.03628361178040504,-0.03510824557481101
1758440524207839200,3.745839111328125,0.2598153037905693,0.02913374002575874,-0.02678648962973384
1758440524217809200,3.75580908203125,0.23832418747246265,0.018030162209272383,-0.049154281467804685
1758440524227780000,3.765780029296875,0.10693535710871219,0.007563713252544403,-0.0523152434164891
1758440524237750000,3.77575,-0.03845218799114227,0.016963409760594367,-0.043406910621956916
1758440524247721200,3.78572119140625,-0.13359364693164824,0.04898118079006672,-0.020257039911928586
1758440524257691100,3.795691162109375,-0.10769874269664287,0.042616906455159184,-0.006439617722350521
1758440524267662000,3.805662109375,-0.0033130700707435607,0.03922317236363888,0.002748744439825532
1758440524277632300,3.81563232421875,0.10299801765978336,0.013926234021782875,0.0006600439444649965
1758440524287603200,3.825603271484375,0.14454232644736767,-0.0069242463052272794,-0.01175958947322797
1758440524297573000,3.835572998046875,0.10532090764939785,-0.011034604233503342,-0.018988983604335225
1758440524307544300,3.84554443359375,0.04290858287811279,-0.018930325919389722,-0.016383782100089592
1758440524317514200,3.85551416015625,0.02025192991197109,-0.03880290112495422,-0.0034130392969003876
1758440524327484200,3.865484130859375,0.012409399718046188,-0.03980944781899452,0.029568345750472506
1758440524337455400,3.875455322265625,0.007474281403422356,-0.008797638961672783,0.04970438963123597
1758440524347425300,3.88542529296875,0.03143734079301357,0.01930734253823757,0.032798043820122254
1758440524357396200,3.895396240234375,0.10092881017029284,0.06572714840769768,-0.008378845010732766
1758440524367366100,3.9053662109375,0.11287643759548663,0.06402852779626846,-0.06030094037419185
1758440524377337300,3.91533740234375,0.03637479719519615,0.036839492097496984,-0.10331518471702002
1758440524391046100,3.929046142578125,0.006532616639137268,0.041843583995103836,-0.09744753479263744
1758440524401017000,3.93901708984375,0.016669979771971703,0.06485095009505748,-0.029832513111992736
1758440524410987300,3.9489873046875,0.07546762117743491,0.03645370765030384,0.0018546868143312165
1758440524420958000,3.9589580078125,0.11934592587053774,-0.026128128468990323,0.01267983128192718
1758440524430928100,3.96892822265625,0.16410218244194982,-0.04167991786599159,0.03578767920633545
1758440524440899000,3.978899169921875,0.1813093378305435,-0.03350947089195251,-0.003239116064432892
1758440524450869000,3.988868896484375,0.14260405186116695,-0.02417933248877525,-0.04675347197034862
1758440524460839200,3.998839111328125,0.06526362254917621,-0.015032149437069892,-0.0694131891098339
1758440524470810000,4.00881005859375,0.022041151416301728,0.047694063588976855,-0.028447301264712586
1758440524480780000,4.018780029296875,0.01848608928322792,0.05460018971562385,0.013695891298050992
1758440524490751000,4.0287509765625,0.014187515306472777,0.04725684121549129,0.042297538307681674
1758440524500721000,4.038720947265625,0.01923427730202675,0.045892567124962806,0.03117589054496493
1758440524510692000,4.048692138671875,0.04934884505867958,0.022691724279522894,0.01113137000571005
1758440524520662000,4.058662109375,0.06240297242105007,-0.0037689971446990965,-0.023999845452734734
1758440524530633000,4.068633056640625,0.09388824400901793,-0.006403437301516533,-0.046257240285468286
1758440524540603000,4.078602783203125,0.06979834336936473,0.008764905735850334,-0.010148722493776585
1758440524550574000,4.088573974609375,0.05637713626027107,-0.0109492640376091,0.0038549158688503666
1758440524560544000,4.0985439453125,0.09008242198526858,-0.006220481950044631,-0.0008181799485115334
1758440524570514000,4.108513916015625,0.08353636134266852,-0.009124386698007582,0.0012408640524576185
1758440524580485000,4.118485107421875,0.05573416218161582,0.007476034969091415,-0.008390301982263917
1758440524590455000,4.128455078125,0.0575567014336586,0.02606558462679386,-0.02394574292860925
1758440524600426000,4.138426025390625,0.07305237672924995,0.016382395002245902,-0.03028679621813353
1758440524610396200,4.148396240234375,0.04122574435770512,0.03881166895329952,-0.032568349550361746
1758440524620367000,4.1583671875,0.05862111579477787,0.03480535592138767,-0.042848258392466226
1758440524630337000,4.1683369140625,0.05615735602974891,0.01563011533021927,-0.02882754873697413
1758440524640308200,4.17830810546875,0.060307461446523665,0.03697042500078678,-0.0038372320838097945
1758440524650278100,4.188278076171875,0.06752221513092517,0.04000292456448078,-0.007563294269080506
1758440524660249000,4.1982490234375,0.020768647262454032,0.00720832394361496,0.01443871815514285
1758440524670219000,4.208218994140625,0.01794014583826065,-0.0186176067084074,-0.00985353323126328
1758440524680190200,4.218190185546875,0.04273731796443462,0.012194295662641524,-0.006401213378389365
1758440524690160000,4.22816015625,0.10505144305825233,0.015811901637911796,-0.009624833333701826
1758440524700130000,4.238130126953125,0.11580839939415455,0.00994447090923786,-0.009185333379806251
1758440524710100000,4.248099853515625,0.060898997598886485,0.007785831570625305,0.0017560244855048949
1758440524720071200,4.2580712890625,0.04998129774332046,0.04711889404952526,0.024338011915516107
1758440524730041000,4.268041015625,0.028100305324792862,0.022159224838018417,0.0015072290792857528
1758440524740012000,4.278011962890625,0.010717208847403526,-0.015258943930268287,-0.03033792133388342
1758440524749982200,4.287982177734375,0.008230652728676796,-0.0003121346890926361,-0.10167640453404746
1758440524759953000,4.297952880859375,0.042456162935495374,0.035788521739840505,-0.0035553238550332022
1758440524769923000,4.307923095703125,0.10748948386013507,0.023537527453899382,0.026939974574837832
1758440524779894000,4.31789404296875,0.15206453864574432,0.009235445857048033,-0.0361047594986041
1758440524789864000,4.327864013671875,0.16441490165293215,0.030478140372037887,-0.030754710557404905
1758440524799835000,4.3378349609375,0.09226444219946861,0.04870002576112747,-0.004847364111823844
1758440524809804800,4.3478046875,0.021216391029953954,0.043888826087117194,-0.003628413636596815
1758440524819776000,4.35777587890625,-0.06668225717544556,0.01810556553304195,-0.018960921987053007
1758440524829746000,4.367745849609375,-0.07458850025534629,-0.0036100071907043457,-0.030917358339787458
1758440524839715800,4.3777158203125,-0.0261117618560791,-0.025872692403197287,-0.014399591721151954
1758440524849687000,4.38768701171875,0.06134791041016578,-0.055715457481145855,-0.009784198888676474
1758440524859657000,4.397656982421875,0.1702168659299612,-0.027675357910990715,-0.004041527907065756
1758440524869628000,4.4076279296875,0.27162556857168674,0.031176644030213353,0.020768149505532345
1758440524879598000,4.41759814453125,0.2730734292924404,0.055072483402490616,-0.004726676895446143
1758440524889569000,4.427569091796875,0.17313830633461474,0.02575578802525997,-0.04696876325542107
1758440524899539000,4.4375390625,0.06701660369634628,0.03388590298891067,-0.05638293124681804
1758440524909510100,4.44751025390625,-0.021191256588697433,0.05356675501465797,-0.028831284197175407
1758440524919480000,4.45747998046875,-0.057931964486837385,0.040759880411624906,-0.026962805177865083
1758440524929451000,4.467450927734375,-0.029136078113317487,0.014121464332938193,-0.002843258889441495
1758440524939421000,4.4774208984375,0.00032967034578323365,0.005689151552319526,0.008802441288487171
1758440524949392100,4.48739208984375,0.033240006300807,-0.002749006447196007,-0.0033146301277010935
1758440524959362000,4.497362060546875,0.04348550598323345,0.010450666865706443,-0.011605448082642396
1758440524969332000,4.50733203125,0.023702947148680684,0.004667407289147376,-0.02776625106483698
1758440524979303200,4.51730322265625,0.05403261896073818,0.0034761516779661175,-0.0212492178706103
1758440524989273000,4.527273193359375,0.07783142769932747,-0.004516016119718551,0.001321584584627999
1758440524999244000,4.537244140625,0.09627250879704952,-0.0088578447163105,0.02674439492052188
1758440525009214000,4.5472138671875,0.12233517081439495,-0.013881225836277006,0.0013058373137580929
1758440525019185200,4.55718505859375,0.11368424684703349,0.008461538875102996,-0.014445008615322876
1758440525029155000,4.567155029296875,0.08247720767855644,0.012796937730908392,0.0019478575485874898
1758440525039126000,4.5771259765625,0.011321604481339453,-0.008937924215197563,0.002103491924527043
1758440525049096200,4.58709619140625,-0.058012043985724446,0.002052256354689598,-0.03146018281248398
1758440525059067100,4.597067138671875,-0.05769114146828651,0.05038578689098358,-0.04412474003511015
1758440525069037000,4.607037109375,0.006321604236960411,0.08140051835775375,-0.03125997036553453
1758440525079008000,4.617008056640625,0.08856032698452472,0.0739133774727583,-0.015259448537055867
1758440525088978200,4.626978271484375,0.16070611026287077,0.02785246804356575,0.007038876527687535
1758440525098948000,4.636947998046875,0.1758586712092161,0.019015081593394278,-0.00818550297927577
1758440525108919000,4.6469189453125,0.15555354980528355,-0.008806991311907767,-0.02125093262037262
1758440525118889200,4.65688916015625,0.0781961693584919,-0.041964580026268954,-0.03673133271501865
1758440525128860000,4.66685986328125,0.008930325430631637,-0.045835868501663206,-0.030045313329168127
1758440525138829800,4.676829833984375,0.008677811974287032,-0.005357727640867233,0.0005453306673807674
1758440525148801000,4.686801025390625,0.014502572605013846,0.006174304720759392,0.004052716021360538
1758440525158771000,4.69677099609375,0.0630722499847412,0.02221884607076645,-0.008075284070451744
1758440525168742000,4.706741943359375,0.10014438179433345,0.04626081591546535,-0.03233212050853763
1758440525178712000,4.716712158203125,0.16494798561632631,0.05877718313932419,-0.03076549909618916
1758440525188683000,4.72668310546875,0.16044190636873246,0.06798398742377758,-0.01317258894315455
1758440525198653000,4.73665283203125,0.12308452787697315,0.04473930543661117,-0.020327358351915608
1758440525208624000,4.7466240234375,0.039701895791292185,0.008666706058382987,-0.023430468616541474
1758440525218594000,4.756593994140625,-0.029404958182573316,0.0007429273217916488,0.0005273146638442995
1758440525228564000,4.76656396484375,-0.043053544306755065,-0.013678396740555763,-0.022628162090596742
1758440525238535000,4.776534912109375,0.017338672813773156,-0.01590191800892353,0.006303059937516809
1758440525248505000,4.786505126953125,0.0924351225912571,-0.014475684598088264,0.003865719534421805
1758440525258476000,4.79647607421875,0.14220190080106257,0.0038987610042095183,0.007681099404382985
1758440525268446000,4.806446044921875,0.12643968352377413,0.00926876360476017,0.01846583651306573
1758440525278417200,4.816417236328125,0.07524491833746433,0.005989011281728744,-0.00555115072907065
1758440525288387000,4.826386962890625,0.0957066916078329,0.02877075193226337,-0.019505915583949533
1758440525298358000,4.83635791015625,0.08405775486826896,0.034604864913225175,-0.01927794519710587
1758440525308328200,4.846328125,0.05433540129959583,0.011298808127641677,-0.005020654302518232
1758440525318299100,4.856299072265625,0.007987491622567176,0.0005132102191448212,-0.006258713334891945
1758440525328269000,4.86626904296875,-0.013427636849880218,0.03413198670446872,-0.0036416786873131055
1758440525338240300,4.876240234375,0.0359849210947752,0.04150163868963718,-0.024614949710352812
1758440525348210200,4.886210205078125,0.07699965305030346,0.03381225323081016,-0.017656256571185077
1758440525358180000,4.89618017578125,0.03313713044822216,-0.011108253991603851,-0.021331961967330424
1758440525368151000,4.906151123046875,0.029681437036395072,0.006364274334907531,-0.028714021342922932
1758440525378121200,4.916121337890625,0.049474517264962194,0.05553016404211521,-0.0114197390850808
1758440525388092200,4.926092041015625,0.029168811339139938,0.010349544578790663,-0.01771566545809037
1758440525398062000,4.93606201171875,0.032364392510056496,-0.027983400946855544,-0.03544488223420922
1758440525408033000,4.946032958984375,0.052388358885049814,-0.0377799878180027,0.004989811068860581
1758440525418003200,4.956003173828125,0.10202829584479331,-0.016070844835042952,0.04632414064237382
1758440525427974000,4.965973876953125,0.18920739760398864,0.0034469255834817885,0.031876378380961246
1758440525437943800,4.97594384765625,0.21859072847664354,0.02752396674156189,0.021787407267384696
1758440525447915000,4.9859150390625,0.16803192310631274,0.030954525712132454,0.015364480955753242
1758440525457885000,4.995885009765625,0.05750818611681461,0.022743162205815314,0.004184289672522572
1758440525467856000,5.00585595703125,-0.00995323873758316,0.038898178192973136,-0.020841178209125063
1758440525477826000,5.015825927734375,-0.05724222865700721,0.03890168532431126,-0.023515233423700554
1758440525487797500,5.025797607421875,-0.09651976155638695,0.030029227560758587,-0.04821807376334909
1758440525497767400,5.035767333984375,-0.08217033368647098,0.02536766549050808,-0.06800175140933133
1758440525507737300,5.0457373046875,-0.05649287159442901,0.023321838876605033,-0.04782254880685359
1758440525517708300,5.055708251953125,0.022346271842718122,-0.02721884631514549,-0.03325604412015527
1758440525527678500,5.065678466796875,0.10045417839586734,-0.05310498272180557,-0.014750336821004748
1758440525537649400,5.0756494140625,0.14066869988441466,-0.038190906706452366,0.011745510715525596
1758440525547619300,5.085619384765625,0.22074410711824893,0.03731061674058437,0.03152037486738991
1758440525557590500,5.095590576171875,0.20567747088968752,0.037757775986194606,0.03186176533371909
1758440525567560400,5.105560546875,0.16406301947534083,-0.005453004708886146,0.01447649973212974
1758440525577531400,5.115531494140625,0.1170084228336811,0.014820552513003349,-0.006411573800555197
1758440525587501600,5.12550146484375,0.05349193621277809,0.04513561127781868,-0.013851102409360464
1758440525597472500,5.135472412109375,0.008967150309681891,0.0664192223250866,-0.02064881570849102
1758440525607442400,5.1454423828125,0.02328969017267227,0.055559974658489227,-0.025492919854971114
1758440525617413600,5.15541357421875,0.04104629613757133,0.03868541222512722,-0.02870181488189846
1758440525627383600,5.165383544921875,0.053949032330513,0.00909399155974388,-0.04298641562098637
1758440525637353500,5.175353515625,0.0831412245452404,-0.01321837801337242,-0.04211349611082114
1758440525647324400,5.185324462890625,0.10468144070208071,-0.03502455163002014,-0.020065650092251596
1758440525657294600,5.195294677734375,0.0799818837314844,-0.035850481060147286,-0.006264774324564496
1758440525667265500,5.205265625,0.03620587036907673,-0.026980945906043052,0.043545145482290534
1758440525677235500,5.2152353515625,0.020006430718302725,-0.009189853149652481,0.042652105632703746
1758440525687206400,5.225206298828125,0.03291559665203094,0.028821605336666105,0.02221061253196094
1758440525697176600,5.235176513671875,0.011402268502116203,0.0022106617867946625,-0.02279702498463448
1758440525707147300,5.245147216796875,-0.009305588483810424,0.020364742636680602,-0.037634592564520425
1758440525717117200,5.2551171875,-0.02540332132577896,0.05776011505126953,-0.057125611973437476
1758440525727088400,5.26508837890625,-0.026838322564959525,0.061679334321618075,-0.04115239142712671
1758440525737058300,5.275058349609375,0.05753799673318863,0.06602759265899658,-0.04995047334679402
1758440525747029200,5.285029296875,0.1438134276509285,0.0562058713465929,-0.013400944064132636
1758440525756999400,5.29499951171875,0.19363339735269544,0.054122635331749915,-0.0029254036228958283
1758440525766970400,5.304970458984375,0.1320230366140604,0.03113631201982498,-0.011800775433564559
1758440525776940300,5.314940185546875,0.08741641764640808,0.012638532298803328,-0.05247594583695754
1758440525786910200,5.32491015625,0.0381242712110281,0.01516249781847,-0.037688169932260644
1758440525796881400,5.33488134765625,-0.010455927562713623,-0.029840426990389822,0.007094761158589972
1758440525806851300,5.344851318359375,0.017654899156093598,-0.05765314754545688,0.010500047548941802
1758440525816822300,5.354822265625,0.08736907137334346,-0.03841770119965076,0.007665233973326394
1758440525826792400,5.36479248046875,0.13867431119680404,-0.008265139520168304,0.035937545138958374
1758440525836763400,5.374763427734375,0.17257190462350844,0.031326866155862804,-0.0020193672944180435
1758440525846733300,5.3847333984375,0.15420739589333532,0.0561842440366745,-0.020256149429362266
1758440525856704500,5.39470458984375,0.07889525753855704,0.0568681346476078,-0.040501932728337124
1758440525866674400,5.40467431640625,-0.007240472647547722,0.061735448423027986,-0.033441942630673294
1758440525876645400,5.414645263671875,-0.03444295234978199,0.03364449544847011,-0.023001904473546893
1758440525886615600,5.424615478515625,-0.013114917638897895,0.008972995528578758,0.009661483541171764
1758440525896586500,5.43458642578125,0.06691898854076862,-0.019391513690352438,0.01370990612367168
1758440525906556400,5.444556396484375,0.11571078423857688,-0.018996961414813995,-0.011240010020445333
1758440525916527600,5.454527587890625,0.12067395960390567,-0.005981997019052505,-0.04007243700358085
1758440525926497500,5.46449755859375,0.06401040761768817,0.02529752286374569,-0.04735331472675316
1758440525936467500,5.474467529296875,0.023849077621102333,0.03828033855557442,-0.04938651932110078
1758440525946438400,5.4844384765625,0.012511106526851654,0.04476210179030895,-0.017218877792428245
1758440525956408600,5.49440869140625,0.04195113602280617,0.03334931189417839,-0.002235797369695501
1758440525966379500,5.504379638671875,0.10714520046710968,0.004549918389320374,-0.005235528887415421
1758440525976349400,5.514349365234375,0.12646657153069973,-0.005598550659418106,0.006341420328171807
1758440525986320400,5.5243203125,0.12882336378991602,-0.009033201283216476,0.015092502463824348
1758440525996290600,5.53429052734375,0.10732640225291251,-0.020858663633465765,0.007323809828489902
1758440526006261200,5.54426123046875,0.0564934561163187,-0.01723521243929863,-0.009017927223915466
1758440526016231400,5.5542314453125,-0.003905775266885757,0.01713058302104473,-0.014170753684628288
1758440526026202400,5.564202392578125,-0.038432314246892925,0.04887129067480564,-0.016312956770026355
1758440526036172300,5.57417236328125,-0.039764439633488656,0.027615736678242683,-0.019135276190249715
1758440526046143200,5.584143310546875,-0.03957154740989208,0.006115268009901046,-0.026598855819855816
1758440526056113400,5.594113525390625,0.024341245052218435,0.039004561176896095,-0.006575947749143233
1758440526066084400,5.60408447265625,0.06737666918039321,0.025105215162038803,-0.00580693899213511
1758440526076054300,5.61405419921875,0.1544739378750324,0.00724924047589302,-0.0012497899985406547
1758440526086025500,5.624025390625,0.16125672988295553,0.012933715853095053,0.0019546566113102016
1758440526095995400,5.633995361328125,0.13249474577903747,0.0208440505862236,-0.015860419238044415
1758440526105965300,5.64396533203125,0.07564882296323776,0.020583353823423384,-0.04897027580356225
1758440526115936500,5.6539365234375,-0.006172551155090331,0.014300328031182289,-0.08207644485794008
1758440526125906400,5.663906494140625,-0.045837622067332266,0.005167758026719093,-0.043285581230651585
1758440526135877400,5.67387744140625,0.0015185878694057465,0.0031926585614681243,0.012398622595705091
1758440526145847300,5.683847412109375,0.07414893979430198,0.04001987569928169,0.0337459214127739
1758440526155818500,5.693818603515625,0.09904957229495048,0.014731705185770988,0.05116689536527264
1758440526165788400,5.703788330078125,0.08491992465555667,0.014061843100190163,-0.0029778616083844097
1758440526175759400,5.71375927734375,0.05427110389173031,0.013315408647060394,-0.0303234704001341
1758440526185729500,5.7237294921875,0.0463023169696331,0.018339958810806273,-0.04529670642393175
1758440526195700500,5.733700439453125,0.03986965357363224,-0.0068313073247671125,-0.03487401897711679
1758440526205670400,5.74367041015625,0.08610124339461327,-0.013736264407634735,0.011513256879209075
1758440526215641600,5.7536416015625,0.12940204046070575,-0.0047884033203125,0.037538319982658136
1758440526225611500,5.763611572265625,0.17890286121070384,0.009156535401940346,0.013294065606576623
1758440526235582500,5.77358251953125,0.16788813072144984,-0.005409165567159652,-0.011781285281805321
1758440526245552400,5.783552490234375,0.1420610310256481,-0.006958733096718787,-0.05268837387808598
1758440526255522600,5.7935224609375,0.06248363644182681,0.05423778614401817,-0.05333357644644566
1758440526265493500,5.803493408203125,0.006872808378934859,0.08376666296720504,-0.04871569825429469
1758440526275463400,5.81346337890625,-0.029489713856577872,0.08393500527143478,-0.045806057885289186
1758440526285434400,5.823434326171875,-0.01626665966808796,0.044345337682962414,-0.009347401206876384
1758440526295404500,5.833404541015625,0.009575053074955939,0.04782850362360477,-0.007461201584496302
1758440526305375200,5.843375244140625,0.049024435409903526,0.0111801501840353,-0.023126234106114134
1758440526315345400,5.853345458984375,0.044266427227854725,-0.005714285993576049,-0.026197791605140082
1758440526325316400,5.86331640625,0.036141572961211205,0.009579729250073433,-0.019336399669363163
1758440526335286300,5.873286376953125,0.05039397019743919,-0.01540916605591774,0.011207895565842044
1758440526345257500,5.883257568359375,0.03887538183927536,-0.03748305069804191,0.02208894521393813
1758440526355227400,5.893227294921875,0.07519172684550285,-0.007200725159049033,0.025408673354331404
1758440526365198300,5.9031982421875,0.0890010564893484,-0.01058627594411373,0.009200565198267577
1758440526375168300,5.913168212890625,0.07487199337184429,-0.030635376760363577,0.009661235804355238
1758440526385139500,5.923139404296875,0.036468320697546006,-0.03533785536289215,0.011032779885886702
1758440526395109400,5.933109375,-0.014797756159305571,-0.007797522008419037,0.008923502964200452
1758440526405080300,5.943080322265625,0.03777706520855426,0.06523907262980938,-0.011894876607938204
1758440526415050500,5.953050537109375,0.14151391853690146,0.1156184297800064,-0.04518754239445552
1758440526425020400,5.9630205078125,0.12042144614756106,0.0742699358254671,-0.06023058768487535
1758440526434991400,5.972991455078125,0.0649941579580307,0.01359481011033058,-0.04583792346143163
1758440526444961300,5.982961181640625,0.032770050701498986,0.0013964227944612503,-0.04950349219769705
1758440526454932500,5.992932373046875,0.03793079446554184,0.02121931363940239,-0.02534725289014168
1758440526464902400,6.00290234375,0.05913315697014331,0.006177227330207824,-0.019483717451873234
1758440526474873300,6.012873291015625,0.12167349203526973,-0.03405775242447853,-0.04468109527623746
1758440526484843300,6.02284326171875,0.19281915836036204,-0.03418050202131271,-0.0256520353898406
1758440526494814200,6.032814208984375,0.22712182545661924,-0.0033738603472709652,0.005752484270738205
1758440526504784100,6.0427841796875,0.1812614070355892,0.04009235641360283,0.025751047918060793
1758440526514755300,6.05275537109375,0.0767968239545822,0.04888122754693031,0.010855547597369878
1758440526524725200,6.062725341796875,-0.0014385083705186843,0.019277531921863555,-0.0025169301365705905
1758440526534696200,6.0726962890625,-0.06595569646656513,0.02599368843436241,-0.008824399104434996
1758440526544666000,6.082666015625,-0.0929009865373373,0.03023614830970764,-0.01985624740856001
1758440526554637300,6.09263720703125,-0.04401566733717918,0.030191140124201772,-0.024912560400459915
1758440526564607200,6.102607177734375,0.0015074819535017012,0.009812368962168694,-0.022998746685369404
1758440526574578000,6.112577880859375,0.06272445946037769,0.019233108258247374,-0.013425401510309893
1758440526584548400,6.12254833984375,0.10339490802288055,0.04180032937526702,-0.01356491387063288
1758440526594518300,6.132518310546875,0.1000198786318302,0.05294131659269333,-0.015160522773803677
1758440526604489200,6.1424892578125,0.10342647220492363,0.012616904988884925,-0.0006289798026322387
1758440526614459400,6.15245947265625,0.11629238351881503,-0.01869651716351509,-0.017410451416840077
1758440526624430000,6.16243017578125,0.10394903477430344,-0.009597849428653717,-0.02698189575411379
1758440526634400300,6.172400146484375,0.06444470738172531,-0.011024667361378668,-0.009943606684490805
1758440526644371200,6.18237109375,0.04539396995306015,-0.011565934631228446,-0.022183738224767147
1758440526654341000,6.192341064453125,0.03833995978832245,0.021008885759115217,0.00360817370993318
1758440526664312000,6.20231201171875,0.032463176709413524,0.051963995993137356,0.00003958994158310816
1758440526674282000,6.212281982421875,0.08865794214010238,0.047559623554348944,-0.009409642513329163
1758440526684253200,6.222253173828125,0.11258826830387114,0.03828852186203003,-0.014068387005408294
1758440526694223000,6.23222314453125,0.09502338551878929,0.011370704320073127,-0.028665286830370312
1758440526704194000,6.242194091796875,0.04777180500030517,-0.00305471139550209,-0.028489042064186648
1758440526714164200,6.252164306640625,0.0027870003700256347,-0.008631634745001792,-0.00007406988320872187
1758440526724135200,6.26213525390625,-0.016718495088815687,-0.009980711266398429,-0.0038904749497654847
1758440526734105000,6.27210498046875,-0.01639291639626026,0.01095452473461628,-0.005553670338075608
1758440526744076300,6.282076171875,0.04389116417467594,0.040702597266435624,-0.023195292170776517
1758440526754046200,6.292046142578125,0.12535948707163333,0.057692310512065886,-0.016537665479059795
1758440526764017200,6.30201708984375,0.16793489247262477,0.022992753052711486,-0.028147564832889473
1758440526773987000,6.311987060546875,0.15723872641324996,0.004258826488256455,-0.02722541305324994
1758440526783957200,6.321957275390625,0.11928455107212066,-0.009664484924077987,-0.008970276131818536
1758440526793928200,6.33192822265625,0.06876257058084011,-0.00858604203760624,-0.0038201450933353044
1758440526803898000,6.341898193359375,0.02246843691766262,-0.0035457097828388213,0.01195119620532496
1758440526813869300,6.351869384765625,0.008498948276042938,-0.000374094009399414,0.01629952532465104
1758440526823839200,6.361839111328125,0.02726677711009979,0.027529227438569066,0.004223163803119678
1758440526833810200,6.37181005859375,0.023604747471213338,0.045644729843735694,-0.045427018272713754
1758440526843780000,6.381780029296875,0.010697919625043868,0.06749649616777896,-0.06662581428047269
1758440526853751300,6.391751220703125,-0.03099251963496208,0.0716477706283331,-0.0356569084165385
1758440526863721200,6.40172119140625,-0.05369418078660965,-0.0005646481454372405,-0.012741739228239748
1758440526873692200,6.411692138671875,-0.05207797776162624,-0.06781213798820972,0.005344276787538547
1758440526883662300,6.421662353515625,-0.0150187054336071,-0.041432080584764476,0.021746780712762846
1758440526893633000,6.431633056640625,0.08015256412327289,-0.005584522134065628,0.047387733019585716
1758440526903603200,6.441603271484375,0.1886772362500429,0.011911971589922904,0.03596321158646606
1758440526913574100,6.45157421875,0.23010990135669707,0.0234060100287199,0.0007647555611096322
1758440526923544000,6.4615439453125,0.24110826523303985,0.015022212564945221,-0.025371094990032723
1758440526933515000,6.471514892578125,0.1690577590227127,0.03888064253628254,-0.030256745856453198
1758440526943485200,6.481485107421875,0.09442425058186053,0.0390694431066513,-0.026340825938177295
1758440526953456000,6.4914560546875,0.025687983486056325,0.0045101709008216855,-0.004295416188577655
1758440526963426000,6.501426025390625,0.0016366612911224365,-0.010811316871643066,0.012577214582602027
1758440526973397200,6.511397216796875,0.01993044287264347,-0.004871405428647994,-0.01774172120630974
1758440526983367200,6.5213671875,0.05859422778785228,0.03763911804258823,-0.04747353443978354
1758440526993337000,6.531337158203125,0.04889233346283436,0.04574059143364429,-0.05237985135160852
1758440527003308000,6.54130810546875,0.03325812647938728,0.02759060223698616,-0.0592058797130594
1758440527013278200,6.5512783203125,0.04027940341830254,0.03176993374824524,-0.03375984034027205
1758440527023249200,6.561249267578125,0.030952187624573704,0.01567746160328388,0.004512107129581272
1758440527033219000,6.571218994140625,0.08815057713985443,-0.01575987918972969,0.018619867164152672
1758440527043190300,6.581190185546875,0.07436696645915508,-0.03946691799163818,0.02470655753354076
1758440527053160200,6.59116015625,0.032277298748493194,-0.0414443555444479,0.021204721141757907
1758440527063131100,6.601131103515625,-0.01194353577196598,-0.015724807876348494,0.028401108052406924
1758440527073101000,6.61110107421875,0.017590017226338385,0.03172141843140125,0.019496631732373496
1758440527083072300,6.621072265625,0.01778407849371433,0.07421148363649845,0.003113850854348857
1758440527093042200,6.631042236328125,0.03404021676778793,0.08054127117991447,-0.011823473605851176
1758440527103013400,6.641013427734375,0.08854571393728256,0.07915946143269538,-0.037354538080701605
1758440527112983300,6.6509833984375,0.12838731046020985,0.04313654641509056,-0.04131345004062168
1758440527122954200,6.660954345703125,0.10438801071345806,-0.013980594557523726,-0.028273855810391248
1758440527132924200,6.670924072265625,0.07995733381211757,-0.024959669211506844,-0.029150003890681543
1758440527142895000,6.68089501953125,0.07786591449081898,-0.004578559961915016,-0.009136595442320686
1758440527152865300,6.690865234375,0.06836743378341198,-0.01063596030473709,-0.0059984892128384665
1758440527162836000,6.7008359375,0.0673427669107914,-0.028076924449205398,-0.009819031598395667
1758440527172806100,6.71080615234375,0.06161211430430412,-0.004990647894144058,0.0010317405008012429
1758440527182776300,6.7207763671875,0.012197218272089957,0.006013561201095581,-0.01674157000372652
1758440527192747000,6.7307470703125,-0.022657237488031386,0.036949382212758064,-0.01784274987839162
1758440527202717200,6.74071728515625,-0.04804419220089912,0.06773088944554329,-0.016044105241878423
1758440527212688100,6.750688232421875,-0.036440848168730736,0.06069090780615806,0.008475984100630739
1758440527222658000,6.760657958984375,-0.015301614028215407,0.04752338319718837,0.01806323222016799
1758440527232629000,6.77062890625,0.043426469272375104,0.032740240085124966,0.021065381169726605
1758440527242599200,6.78059912109375,0.09916823023855685,0.006384148079156876,-0.011121757360571064
1758440527252570000,6.790570068359375,0.11835983744263648,-0.015585691666603087,-0.03224207217148505
1758440527262540000,6.8005400390625,0.11918985852599143,0.012259762114286423,-0.04012434072075412
1758440527272511200,6.81051123046875,0.1302192020624876,0.019275778356194494,-0.035854581846529614
1758440527282481200,6.820481201171875,0.12167758368849754,0.0068026657521724695,-0.04238830359736457
1758440527292452000,6.8304521484375,0.11482348001003265,0.013693009787797927,-0.027244654326548334
1758440527302422000,6.840422119140625,0.11958148819208145,0.027726211315393445,-0.013567659525212366
1758440527312393200,6.850393310546875,0.09720423668920994,0.044701896035671235,-0.012882245960761792
1758440527322363100,6.860363037109375,0.09066694387495518,0.018642741149663924,-0.0028811883093672803
1758440527332334000,6.870333984375,0.06460252829194069,0.011302899780869484,-0.026228488137503152
1758440527342304300,6.88030419921875,0.05619067377746105,0.02637538122832775,-0.043349577244417736
1758440527352275200,6.890275146484375,0.05435118339061737,0.0012479542344808578,-0.03627079339802731
1758440527362245000,6.9002451171875,0.04975450325012207,-0.008238251513242721,0.007643774485122412
1758440527372216300,6.91021630859375,0.038541619840264316,-0.005934650745987892,0.005851239928987342
1758440527382186200,6.920186279296875,0.06137479841709136,0.022720950374007225,0.0027861852359841576
1758440527392157200,6.9301572265625,0.08806231433451175,0.04457797739505768,-0.00539550465127686
1758440527402127400,6.94012744140625,0.06115268009901046,0.0414092842310667,-0.02930853718694998
1758440527412097300,6.95009716796875,0.009155950880050659,0.03945113590061664,-0.024318489797716027
1758440527422068200,6.960068115234375,0.0030769232273101803,0.02487783614695072,-0.008662070982460864
1758440527432038100,6.9700380859375,0.00015606734454631804,0.002841360905766487,-0.003489474667131435
1758440527442009000,6.980009033203125,0.029499066206812856,-0.017175591206550597,-0.021235593487345612
1758440527451979300,6.989979248046875,0.056897945263981814,-0.024888357540965078,0.0009913536914857104
1758440527461950000,6.999949951171875,0.0859118583023548,-0.022578911554813383,0.007701650143711595
1758440527471920000,7.009920166015625,0.10437924288511276,0.007758943563699722,-0.014407862934219882
1758440527481891300,7.019891357421875,0.118541623750329,0.028615853631496428,-0.0014782764086150564
1758440527491861200,7.029861328125,0.16539923651516436,0.0416664738625288,-0.0016359717379556967
1758440527501832400,7.03983251953125,0.1605927130162716,0.03474982634186744,-0.015446322011819573
1758440527511802400,7.04980224609375,0.07352350137233733,0.021098902130126954,-0.037621196510118894
1758440527521773300,7.059773193359375,-0.008516483932733535,0.03203822929561138,-0.05220972351566888
1758440527531743500,7.069743408203125,-0.06248188287615776,0.06475976468026638,-0.06941132594631053
1758440527541714400,7.07971435546875,-0.03960954133272171,0.06327683264613151,-0.06872433919599279
1758440527551684400,7.089684326171875,0.05853811368644237,0.045207507470250125,-0.020877475648501422
1758440527561655600,7.099655517578125,0.12649638214707373,-0.025104046118259428,0.027989689123746938
1758440527571625500,7.10962548828125,0.16293781483769415,-0.052550271448493,0.05676938698086887
1758440527581596400,7.119596435546875,0.2026853033363819,-0.03225391787290573,0.045597082176571706
1758440527591566300,7.12956640625,0.17683248467743395,-0.011329787787795066,0.0006370009955950081
1758440527601537500,7.13953759765625,0.09251812469959259,-0.021442016479372977,-0.031108547230064867
1758440527611507500,7.149507568359375,0.04539104734361171,-0.008902852901816367,-0.04094367144673597
1758440527621477400,7.159477294921875,0.046238019561767575,0.03128828771114349,-0.014874780618003569
1758440527631448600,7.169448486328125,0.03508417286276817,0.06808160257935524,-0.014864852879033424
1758440527641418500,7.17941845703125,0.015880290699005126,0.08460428283512592,-0.026682337418803943
1758440527651389400,7.189389404296875,-0.022232874596118925,0.052263855722546576,-0.026483054270327554
1758440527661359400,7.199359375,-0.010927636727690697,0.058034840339422224,-0.04158823926085606
1758440527671330600,7.20933056640625,0.03770224640667438,0.0423982952684164,-0.059395625564921645
1758440527681300500,7.219300537109375,0.0748018507450819,-0.014197452178597449,-0.04318624447544571
1758440527691271400,7.229271484375,0.1350987907975912,-0.017194880428910254,-0.012024553702480624
1758440527701241600,7.23924169921875,0.13788462212383745,-0.01729658723771572,0.014510034392261877
1758440527711212300,7.24921240234375,0.07786006927192211,0.002155132207274437,0.010931605083332397
1758440527721182500,7.259182373046875,0.041697453522682185,-0.00032207156121730803,0.013002335526340175
1758440527731153400,7.2691533203125,0.006872223857045173,0.015260697495937347,0.015756397174566516
1758440527741123300,7.279123291015625,-0.0300461786955595,0.00661444970369339,0.0185984658998088
1758440527751094300,7.28909423828125,-0.022128829699754715,0.013453940334916113,0.02361091463380726
1758440527761064200,7.299064208984375,-0.03526537464857101,0.021051555857062337,0.027304334924800784
1758440527771035400,7.309035400390625,-0.006150923845171928,0.011627893951535224,-0.00010459288563579321
1758440527781005300,7.31900537109375,0.029853286471962927,0.03881342251896858,-0.04282135668580886
1758440527790976500,7.3289765625,0.062142860180139536,0.06323299350440502,-0.05934019645010121
1758440527800946400,7.338946533203125,0.07326163556575775,0.014122633376717566,-0.058586482872813934
1758440527810917400,7.34891748046875,0.0784054281949997,0.008884732723236083,-0.024794199284375644
1758440527820887300,7.35888720703125,0.09475392092764377,0.022072131076455115,-0.02757847112448653
1758440527830858500,7.3688583984375,0.16301555624902248,0.02988718874156475,-0.009705214226688259
1758440527840828400,7.378828369140625,0.16599311075508594,-0.021199439895153046,-0.01685122265696991
1758440527850799400,7.38879931640625,0.1465665257513523,-0.057630935713648794,-0.03193569821960991
1758440527860769500,7.39876953125,0.1405629014223814,-0.02307575516104698,-0.02672009616290452
1758440527870739500,7.408739501953125,0.10935118607878684,0.022262100690603255,-0.011869488721643574
1758440527880710400,7.41871044921875,0.052124154990911484,0.02080313405394554,0.0035046905025723388
1758440527890680300,7.428680419921875,0.052044660013914106,0.039627661511301995,0.024356766848335973
1758440527900651500,7.438651611328125,0.04752747485041618,0.05340659601688385,0.014480689566768705
1758440527910621400,7.448621337890625,0.04479834214746952,0.03648176470100879,-0.004728907668439205
1758440527920592400,7.45859228515625,0.007265607088804245,-0.018041852647066117,-0.0157142476664274
1758440527930562600,7.4685625,-0.022084406036138534,-0.02453939797282219,-0.013893619526969268
1758440527940533500,7.478533447265625,0.00916764131784439,0.017714520388841627,-0.00038555155175272373
1758440527950503400,7.48850341796875,0.045592707395553586,0.011350246053934096,-0.012790654120594262
1758440527960474400,7.498474365234375,0.05337152470350265,-0.009102759388089179,-0.04362399200531654
1758440527970444500,7.508444580078125,0.03186696438193321,0.009072364249825477,-0.036345100743253714
1758440527980415200,7.518415283203125,0.028561493095755574,0.04381809893846512,-0.004221704781684093
1758440527990385400,7.528385498046875,0.08645487913787364,0.03920855931639671,-0.0006809132025577128
1758440528000356400,7.5383564453125,0.12643208473920822,0.03637187458574772,-0.022138335030328016
1758440528010326300,7.548326171875,0.14774199927151202,0.014776128849387168,-0.04774977126501034
1758440528020297500,7.55829736328125,0.1601964071750641,0.0036789807736873625,-0.046470271114795465
1758440528030267400,7.568267333984375,0.10552841292023658,0.022536241456866262,-0.03482060600615805
1758440528040238300,7.57823828125,0.014718261182308196,0.039700726747512814,-0.03261314995660214
1758440528050208300,7.588208251953125,-0.02957213144302368,0.011176643052697182,-0.0016789774793316609
1758440528060179500,7.598179443359375,-0.027846622824668883,-0.01029226143360138,0.022551110232435164
1758440528070149400,7.6081494140625,-0.03398994788527489,-0.032278467792272565,0.03263603992513381
1758440528080120300,7.618120361328125,0.01414250712096691,-0.01642214249074459,-0.0015108064217492936
1758440528090090500,7.628090576171875,0.10750058977603912,0.01405190622806549,-0.026184573647251817
1758440528100061400,7.6380615234375,0.14587211374640463,0.022944822257757187,-0.03979080705060623
1758440528110031400,7.64803125,0.18080314187407492,0.049263504862785336,-0.03630454268729081
1758440528120002600,7.65800244140625,0.18846914645731447,0.06675298432409763,-0.015500376586883793
1758440528129972500,7.667972412109375,0.18012568100392817,0.06404197179973126,-0.03157893665421288
1758440528139942400,7.6779423828125,0.13693769666254518,0.031980361628532405,-0.037879541485628575
1758440528149913300,7.687913330078125,0.05352057778537273,-0.005904255607724189,-0.04424817005195655
1758440528159883500,7.697883544921875,0.01675590448975563,-0.034467502269148825,-0.0391646973417839
1758440528169854500,7.7078544921875,-0.021628478962182996,-0.04320668904185295,-0.008700996487052179
1758440528179824400,7.717824462890625,-0.009392097723484039,-0.04396481393277645,0.017393250261934008
1758440528189795600,7.727795654296875,0.025978490865230557,-0.0008855506628751755,0.04553234637728892
1758440528199765500,7.737765625,0.04450374311506748,0.04749883327782154,0.01860465132871177
1758440528209736400,7.747736328125,0.03733516665995121,0.0647457361549139,-0.01268357473363867
1758440528219706400,7.757706298828125,0.05797229649722576,0.06460077472627163,-0.054339410754432896
1758440528229677300,7.76767724609375,0.05040507611334324,0.023781273081898688,-0.054785172627400604
1758440528239647500,7.7776474609375,0.06434826126992702,-0.022186112844943998,-0.005028215983643895
1758440528249618200,7.7876181640625,0.1378875447332859,-0.057771220967173575,0.026302284026076084
1758440528259588400,7.79758837890625,0.14538696057796477,-0.03356266238391399,0.023173530146828852
1758440528269559300,7.807559326171875,0.0785357765763998,0.0037052842587232586,0.027718945890967732
1758440528279529200,7.817529296875,0.030915947267413136,0.04461246418654918,0.006659122245770413
1758440528289500400,7.82750048828125,0.01915712041258812,0.03549509175121784,-0.023171621317532844
1758440528299470300,7.83747021484375,0.046833062845468516,0.026588731718063353,-0.02643803466837853
1758440528309441300,7.847441162109375,0.08465688980519771,0.008563830205798149,-0.030088622747932094
1758440528319411500,7.857411376953125,0.10106208116114139,0.014247721061110497,-0.016072947743872645
1758440528329382400,7.86738232421875,0.11081950506567954,0.04088029192090034,-0.014522528547653927
1758440528339352300,7.877352294921875,0.12410977927148341,0.057765375748276705,-0.02980756133382674
1758440528349323500,7.887323486328125,0.11125322030782699,0.0853846195578575,-0.05937981607443653
1758440528359293400,7.89729345703125,0.06769348004460335,0.08185410734415054,-0.05665586187010631
1758440528369264400,7.907264404296875,0.04087327765822411,0.0569072976142168,-0.016200419181596953
1758440528379234300,7.917234375,-0.04876724577844142,0.012000818917155265,-0.014440378105978015
1758440528391698400,7.929698486328125,-0.1289163027703762,-0.020422025781869888,-0.020071550110075623
1758440528401668400,7.93966845703125,-0.14428455229401588,-0.03684884444773197,0.009522669867170043
1758440528411639600,7.9496396484375,-0.11028934371173381,-0.027310616251826285,0.023337191709363832
1758440528421609500,7.959609375,-0.02379997778236866,-0.0083785367667675,0.019081666856468654
1758440528431580400,7.969580322265625,0.0839250683993101,0.005992518413066863,0.0204050837802235
1758440528441550600,7.979550537109375,0.1536725583642721,0.026549568751454353,0.01725338513351744
1758440528451520500,7.9895205078125,0.18848025237321853,0.011336217528581619,0.0001073465317254886
1758440528461491500,7.999491455078125,0.23007599908709525,0.03079378219246864,-0.013285582047665957
1758440528471461400,8.00946142578125,0.19014730880260466,0.04539280090928077,-0.030500139858003237
1758440528481432300,8.019432373046875,0.10955050804316997,0.014398527708649635,-0.055759917677380144
1758440528491402800,8.02940283203125,0.05916238306462764,0.011685761618614196,-0.04641799293828662
1758440528501374000,8.0393740234375,0.03595394143462181,0.02034779150187969,-0.0046886943890596736
1758440528511343900,8.04934375,0.013960720813274383,0.020689736807346343,0.00797255891491659
1758440528521314800,8.059314697265625,0.03636719841063022,0.02082534588575363,-0.009295480365038383
1758440528531284700,8.06928466796875,0.053936172848939895,0.004112696015834808,0.004342109441093635
1758440528541256000,8.079255859375,0.07652209866642952,-0.017233458873629568,-0.01411476059751585
1758440528551225900,8.089225830078124,0.11739946797788142,-0.003392565047740936,-0.008171905995474663
1758440528561196800,8.09919677734375,0.09336217430830002,0.03356616951525211,-0.02932366397413425
1758440528571167000,8.1091669921875,0.05218494526743889,0.058657356151938435,-0.054036235689930615
1758440528581138000,8.119137939453125,0.04093056080341339,0.08121230230927468,-0.053356149037857535
1758440528591107800,8.12910791015625,0.06807634188234805,0.05038344880342483,-0.0371711055219057
1758440528601079000,8.1390791015625,0.07983750682473183,0.0026350246787071228,-0.02306396882513072
1758440528611049000,8.149049072265624,0.09728899236321449,-0.03526245203912258,0.009532634138758293
1758440528621020000,8.15902001953125,0.10868307755887507,-0.03957330097556114,0.05195721005932428
1758440528630989800,8.16898974609375,0.11044891818761825,-0.028862521868944165,0.03607915698317811
1758440528640961000,8.1789609375,0.03616963001191616,0.016317513072490693,-0.00654005331021035
1758440528650931000,8.188930908203124,-0.07914835551679134,0.057844286203384394,-0.03144633923351066
1758440528660902100,8.198902099609375,-0.1428238320916891,0.07617021648883819,-0.053405180377932265
1758440528670872000,8.2088720703125,-0.14215981522500515,0.05392565145492553,-0.043121705038985235
1758440528680842800,8.2188427734375,-0.07335808167755603,0.03271744373142719,-0.03189533880975796
1758440528690813000,8.22881298828125,0.05674889218211174,0.021097148564457893,-0.013135975268302718
1758440528700783900,8.238783935546875,0.15157821643352506,-0.004807692542672157,-0.00025782781063462607
1758440528710753800,8.24875390625,0.21713936062455175,0.0163911628305912,0.00028653788188821633
1758440528720724700,8.258724853515625,0.21333295407891273,0.034116204613447186,-0.03207247634179657
1758440528730695000,8.26869482421875,0.14803718282580375,0.03445347374379635,-0.052961382133187726
1758440528740665900,8.278665771484375,0.08342588670551776,0.03348316740691662,-0.04088273503973614
1758440528750635800,8.2886357421875,0.047262686434388156,0.024045476976037025,-0.015595365960535127
1758440528760607000,8.29860693359375,0.0037923780202865597,-0.004153612548112869,-0.015826510118576696
1758440528770577000,8.308576904296874,-0.0023328268617391584,0.0018459201276302337,0.00017950073577230796
1758440528780547800,8.3185478515625,0.04424713800549507,0.010673369705677033,0.024000226761936208
1758440528790517800,8.328517822265624,0.09975801282525062,0.03158580935299396,0.0057356689916108735
1758440528800489000,8.338489013671875,0.12028174541592597,0.04357552235424518,-0.013561359931877813
1758440528810459000,8.348458984375,0.1173918691933155,0.03701192605495453,0.0015472088924027047
1758440528820429800,8.358429931640625,0.06581482669115066,0.004267594316601753,0.016257195436710024
1758440528830400000,8.36839990234375,-0.048424715951085086,-0.027740239840745924,-0.012636185078090056
1758440528840371000,8.378370849609375,-0.10877543201744556,-0.03336334041953087,-0.017242589744867292
1758440528850340900,8.3883408203125,-0.1082815110206604,0.01321136375069618,-0.010907498121960088
1758440528860310800,8.398310791015625,-0.026857027265429496,0.04989361945986748,-0.012082967075542546
1758440528870282000,8.408281982421874,0.058135962626338,0.09402736021876335,-0.012489776044455355
1758440528880252000,8.418251953125,0.0974497358828783,0.11757131741344928,-0.02885318093515234
1758440528890223000,8.42822314453125,0.09090309071838855,0.0797603499352932,-0.06797355736130849
1758440528900193000,8.438193115234375,0.03181143480241298,-0.002952420064806938,-0.06078989293491467
1758440528910164000,8.4481640625,0.009647533789277076,-0.0625321517586708,-0.026877681894390843
1758440528920134000,8.4581337890625,0.005062544086575508,-0.07767652939856053,0.014364378843875602
1758440528930105000,8.46810498046875,0.05773322704434394,-0.06697510264217853,0.04365196685763076
1758440528940075000,8.478074951171875,0.11288812803328037,-0.021228665989637373,0.049409333941107615
1758440528950046000,8.4880458984375,0.21269524069726467,0.019490297889709473,0.03463682638749015
1758440528960016100,8.49801611328125,0.32501638249754905,0.0163040690690279,-0.010646723727346397
1758440528969986800,8.50798681640625,0.34478841993808745,0.014762684845924377,-0.03270748859299347
1758440528979957000,8.51795703125,0.3085357878178358,0.03606909224689007,-0.019299396693799643
1758440528989928000,8.527927978515624,0.1854699646413326,0.04098082968592644,-0.020102032013307323
1758440528999897900,8.53789794921875,0.03415829018950462,0.03767009770274162,-0.02584183147405274
1758440529009868800,8.547868896484376,-0.06615443390905856,0.06467793161571025,-0.013877225514594464
1758440529019838700,8.557838623046875,-0.10881342594027518,0.09131108699738978,-0.03040160910368431
1758440529029810000,8.567809814453126,-0.14280746547877787,0.07700608279109,-0.056745855408231724
1758440529039779800,8.57777978515625,-0.14063947378993033,0.05138824193179607,-0.05132982170886825
1758440529049750800,8.587750732421876,-0.05581716428995132,0.022510522493720053,-0.007249395739519968
1758440529059721000,8.597720947265625,-0.02022621094882488,-0.0428512997329235,0.025937414502748286
1758440529069692000,8.60769189453125,0.011847089660167693,-0.10265373426675796,0.02626782920062542
1758440529079661800,8.617661865234375,0.01930909610390663,-0.10635434235036373,0.01612709593377076
1758440529089633000,8.627633056640626,0.06706862614452838,-0.06490823324024676,0.00992820932760369
1758440529099603000,8.63760302734375,0.1143593696296215,0.01248947921693325,0.003974050163547508
1758440529109574000,8.647573974609376,0.14203414301872253,0.0928705913990736,-0.009556439706031232
1758440529119543800,8.657543701171875,0.17510989866852758,0.12662789957225323,-0.03961743694480974
1758440529129515000,8.667514892578126,0.1517956585764885,0.11954992401003837,-0.05698595234099775
1758440529139485000,8.67748486328125,0.08435352294445038,0.08945464547574519,-0.058796075069461946
1758440529149456100,8.6874560546875,0.056302317458391184,0.04727203878462315,-0.04459333479439374
1758440529159426000,8.697426025390625,0.03450491167008877,0.04276654405891895,-0.04709178684689104
1758440529169397000,8.70739697265625,-0.015379355439543723,0.027618659287691114,-0.027532195713790134
1758440529179367000,8.717366943359375,-0.01549275268614292,0.02219312710762024,-0.031195741456327957
1758440529189337900,8.727337890625,0.03567629353702068,0.02444528994858265,-0.019522738854587076
1758440529199308000,8.73730810546875,0.09534428803622721,-0.008370937982201575,0.020910585616948082
1758440529209278700,8.74727880859375,0.15561960077881812,-0.06650923869609833,0.05423892778833397
1758440529219249000,8.757248779296875,0.1784463496148586,-0.08740940338373183,0.06422344758016989
1758440529229219800,8.7672197265625,0.19037819494903085,-0.07160276244282722,0.03427066908937413
1758440529239189800,8.777189697265625,0.1676800409287214,-0.01506838979423046,0.0016443559738108888
1758440529249161000,8.787160888671876,0.09195639916360378,0.04408639448583126,-0.008858369872695766
1758440529259131000,8.797130859375,-0.02990764700770378,0.08262041554152966,-0.026248763740551656
1758440529269101800,8.807101806640626,-0.08099369112253188,0.11406535511910915,-0.052975072731822725
1758440529279071700,8.81707177734375,-0.0811935976088047,0.12063012046217918,-0.0644321447276743
1758440529289043000,8.82704296875,-0.0552647911041975,0.09380816451013088,-0.0783487661043182
1758440529299012900,8.837012939453125,0.02523205641210079,0.05443477002084255,-0.07401034874094184
1758440529308983800,8.84698388671875,0.09690203887224197,0.017462006932497023,-0.05206237833369523
1758440529318954000,8.8569541015625,0.14931027150154114,-0.0073643912881612775,-0.02889646980431862
1758440529328925000,8.866925048828126,0.1707131250143051,-0.02878302689194679,-0.013564478904148563
1758440529338894800,8.876894775390625,0.16145838993489742,-0.04867547584176063,0.0178558605217142
1758440529348864800,8.88686474609375,0.1071048684567213,-0.016504560077190398,0.01559453712676186
1758440529358836000,8.8968359375,0.057197220471501345,0.010308628046512603,-0.007593021545419469
1758440529368806000,8.906805908203125,-0.009330722925066948,0.04247486763596534,-0.023951556181465276
1758440529378777000,8.916777099609375,-0.036222236981987954,0.060439563393592834,-0.027566728171054274
1758440529388747000,8.9267470703125,-0.005657002848386764,0.0401543157339096,-0.01448339754708577
1758440529398718000,8.936718017578125,0.061057987552881235,0.039589083066582674,-0.0045011701770359645
1758440529408687900,8.94668798828125,0.1394207456499338,0.06107435416579246,0.005196783191803843
1758440529418659000,8.9566591796875,0.18524141658246515,0.0399497330725193,-0.020085325190389993
1758440529428629000,8.96662890625,0.1629150184839964,0.01350771634876728,-0.022847850989573634
1758440529438600000,8.976599853515625,0.12646598700881004,-0.01911912648975849,0.00026877732126740736
1758440529448570000,8.986570068359375,0.06822539496421813,-0.03569266014993191,0.018550519121834076
1758440529458540800,8.996540771484375,-0.005087678527832031,-0.03369008815586567,0.029287855158525052
1758440529468511000,9.006510986328125,-0.058363341641426085,-0.04477262318432331,0.02392671171786496
1758440529478482000,9.01648193359375,-0.022311200529336928,-0.02735387087166309,0.006687832317024004
1758440529488451600,9.02645166015625,0.03285772898495197,0.021979776617884635,-0.021457583941263146
1758440529498422500,9.036422607421875,0.04892155955731869,0.040029228049516676,-0.011594190328044351
1758440529508392400,9.046392333984375,0.06984452059864997,0.05781272202134132,-0.01967517577020917
1758440529518363400,9.05636328125,0.06805120744109153,0.06801730517148971,-0.029091339355870147
1758440529528333600,9.06633349609375,0.001585223364830017,0.0501449638724327,-0.04528492922117002
1758440529538304500,9.076304443359374,-0.02771685896515846,0.07939327018857002,-0.049078120092209424
1758440529548274400,9.0862744140625,-0.007309446230530738,0.0722089116424322,-0.045972719689086075
1758440529558245600,9.09624560546875,-0.003064648267626762,0.018079846569895742,-0.0490875729071442
1758440529568215600,9.106215576171875,0.0009165303230285644,-0.008825111490488051,-0.026091952043911442
1758440529578186500,9.1161865234375,0.03796761934459209,-0.0019184008419513702,-0.028026027662318664
1758440529588156400,9.126156494140625,0.05468436086773872,-0.0019587328523397443,-0.011501858702360186
1758440529598127600,9.136127685546874,0.10598726260364055,0.00642272652387619,-0.010061612749192863
1758440529608097500,9.14609765625,0.1684527788668871,0.010761632511019706,-0.028767055287968833
1758440529618068500,9.156068359375,0.15638123280107974,0.00004442366361618042,-0.023018444616394115
1758440529628038700,9.16603857421875,0.17168986109197137,0.02298866139948368,-0.007590560160274617
1758440529638009600,9.176009521484374,0.17707798387110232,0.03609714929759502,0.012052101579820737
1758440529647979500,9.1859794921875,0.1566834306180477,0.029383330872654913,0.003010148451279383
1758440529657950700,9.19595068359375,0.1640764634788036,0.023092706295847892,0.011154033928667194
1758440529667920600,9.205920654296875,0.13077508237957955,-0.006911971345543861,-0.000440400711260736
1758440529677891600,9.2158916015625,0.08549977037012577,-0.013100889113545417,-0.023063973391707984
1758440529687861800,9.22586181640625,0.007167407411336898,0.00005728314518928528,-0.03141485039999243
1758440529697832700,9.235832763671874,-0.013276245680451392,0.028261633366346357,-0.03328214439250296
1758440529707802600,9.245802734375,-0.025025720185041424,0.04044540763497352,-0.02633238233681768
1758440529717773600,9.255773681640624,-0.03888122705817222,0.03891454480588436,-0.022777023376221766
1758440529727743700,9.26574365234375,-0.033031331986188885,0.03297930953800678,-0.008975703508895821
1758440529737714400,9.27571435546875,0.028611761978268622,-0.0030628947019577025,0.0012257538191159255
1758440529747684400,9.285684326171875,0.06842237884104252,-0.019724106645584105,0.006474691889842506
1758440529757655600,9.295655517578124,0.07502046193182468,-0.018859598770737646,0.03533476379008498
1758440529767625500,9.30562548828125,0.04150631486475467,-0.005302782583236694,-0.01723160940983798
1758440529777596400,9.315596435546874,0.023504794228076935,0.03189385238885879,-0.04207987240243237
1758440529787566600,9.325566650390625,0.03704875093400478,0.0514829344779253,-0.05483134985668584
1758440529797537500,9.33553759765625,0.02692307823896408,0.051478258302807806,-0.04261180102177895
1758440529807507500,9.345507568359375,0.04622282199263572,0.042754853621125216,-0.014446029245341196
1758440529817478700,9.355478759765624,0.07836392714083194,0.03496317683160305,-0.0005857480156817473
1758440529827448600,9.365448486328125,0.11767419326603412,0.026546646142005918,0.004416368837258778
1758440529837419500,9.37541943359375,0.11464987700879573,-0.00033259295523166654,-0.01170270133697195
1758440529847389400,9.385389404296875,0.1076321072012186,0.011554828715324402,-0.026482204886956604
1758440529857360600,9.395360595703124,0.09519991112947464,0.0004617722928524017,-0.010688450827088672
1758440529867330600,9.40533056640625,0.06736264065504073,0.008728080856800078,-0.012279946385789662
1758440529877301800,9.4153017578125,0.0772159261494875,0.016525602865219115,-0.011846703784388955
1758440529887271700,9.425271728515625,0.06143149704039096,0.02632920399904251,0.010341516535962
1758440529897242600,9.43524267578125,0.040734745970368386,0.013889993664622307,-0.028733246633200905
1758440529907212500,9.445212646484375,0.015666355687379837,0.003970072674751282,-0.0282008248235099
1758440529917183700,9.455183837890624,0.013682488393783568,0.017682371684908865,-0.03770622617875924
1758440529927153700,9.465153564453125,0.0782785869449377,0.03506429911851883,-0.004230543391976971
1758440529937124600,9.47512451171875,0.10215396805107593,0.048155251359939574,-0.010498186668707056
1758440529947094800,9.4850947265625,0.11100129137337207,0.028174539604783055,-0.010585787320346571
1758440529957065500,9.4950654296875,0.09168401196300983,0.051072600111365316,-0.006650943505892064
1758440529967035600,9.50503564453125,0.028292613026499748,0.05660802240669727,-0.03929311862757895
1758440529977006600,9.515006591796874,-0.006174889242649078,0.007553191858530044,-0.0417547823336441
1758440529986976500,9.5249765625,0.046451954573392865,-0.017117723539471625,-0.01624207778268028
1758440529996947500,9.534947509765624,0.11428688891530037,-0.012063947281241416,0.010598016614257357
1758440530006917400,9.54491748046875,0.16091127744615077,-0.0014133739292621612,0.013900640639511403
1758440530016888600,9.554888671875,0.12915829483270644,0.0056873979866504665,-0.0046627904795343055
1758440530026858500,9.5648583984375,0.05753565864562988,0.038026656055450435,-0.017918849605193826
1758440530036829400,9.574829345703124,-0.006491700106859207,0.04902852706313133,-0.026186573808093087
1758440530046799600,9.584799560546875,-0.0038677813440561293,0.06642156041264534,-0.030477172257658093
1758440530056770600,9.5947705078125,0.04295066845417023,0.043483167895674704,-0.03342306211697869
1758440530066740500,9.604740478515625,0.0870054987579584,-0.004411386701464653,-0.0301746182476636
1758440530076711700,9.614711669921874,0.0750672236829996,-0.014793079984188079,0.010489074063778388
1758440530086681600,9.624681640625,0.05359247397780418,-0.023458616998791693,0.0061989322719397015
1758440530096652500,9.634652587890624,-0.0009223755419254302,0.007059855383634567,-0.007108436915848869
1758440530106622500,9.64462255859375,-0.045516135028004646,0.03528934004604816,-0.030884848876250905
1758440530116593700,9.65459375,-0.020302783316373824,0.055421442970633505,-0.01789808880331111
1758440530126563600,9.6645634765625,0.06405775389075279,0.0649064796745777,-0.010756853587913793
1758440530136534800,9.67453466796875,0.08696984292268753,0.03286357420384884,0.0031225627421226816
1758440530146504700,9.684504638671875,0.10047522118389605,-0.009095160603523254,-0.00257834888829384
1758440530156475600,9.6944755859375,0.11299451101720333,-0.016419219881296156,-0.039959893706929865
1758440530166445600,9.704445556640625,0.0899076499402523,0.007493570625782013,-0.013776797347422688
1758440530176416500,9.71441650390625,0.053178047958016395,0.027265023544430732,-0.005281912183499662
1758440530186386700,9.72438671875,0.03967208517491817,0.01569675082564354,-0.0269959265627549
1758440530196357400,9.734357421875,0.039786066943407056,0.06461831038296223,-0.03264067043447867
1758440530206327600,9.74432763671875,0.0587678307890892,0.09282967486679554,-0.04083701446817722
1758440530216298500,9.754298583984376,0.04563420844972133,0.08591068925857544,-0.0529505091127241
1758440530226268400,9.764268310546875,0.027185528567433354,-0.0022018939584493636,-0.035201691445347384
1758440530236239600,9.774239501953126,-0.00042202480435371396,-0.053721653315424917,0.011223694781528319
1758440530246209500,9.78420947265625,0.003956044149398804,-0.053338206955790515,0.05229555690190755
1758440530256180500,9.794180419921876,0.0638180999159813,0.009031447717547415,0.044426430962001905
1758440530266150400,9.804150390625,0.0998462756305933,0.0440583374351263,0.0002921741798752919
1758440530276121600,9.81412158203125,0.1757061109960079,0.028868367087841032,-0.015364164720277768
1758440530286091500,9.824091552734375,0.21720833420753477,-0.003127192109823227,-0.0038915412455564364
1758440530296062500,9.8340625,0.1971387751251459,0.0142693483710289,0.002117825554322917
1758440530306032600,9.84403271484375,0.13281740186214447,-0.0018617022186517714,-0.028318907378381115
1758440530316003600,9.854003662109376,0.05897650510370731,0.014936287847161292,-0.032988878800661765
1758440530325973500,9.863973388671875,0.01125379994213581,0.02643324889540672,-0.03980019136688206
1758440530335944700,9.87394482421875,0.023138299003243445,0.04818856910765171,-0.03232001907879021
1758440530345914600,9.88391455078125,0.04241524640321731,0.059089902350306506,-0.025373181915841994
1758440530355885600,9.893885498046876,0.03544657643437386,0.06546995877623557,-0.02105939210364595
1758440530365855700,9.903855712890625,-0.024974866780638694,0.05765022493600845,-0.03568773281306494
1758440530375826700,9.91382666015625,-0.060903089252114295,0.020984920361638067,-0.034664780690206676
1758440530385796600,9.923796630859375,-0.0395230320930481,0.003026654344797134,0.0023707271697348915
1758440530395766500,9.9337666015625,0.006591653349995613,-0.036955811953544616,-0.00007793320757336914
1758440530405737700,9.94373779296875,0.08850772001445292,-0.0646931291848421,0.030973134514479896
1758440530415708400,9.95370849609375,0.11951017652153968,-0.04439209943413734,0.042694520002324134
1758440530425678600,9.9636787109375,0.13509645271003246,0.02050210528075695,0.02980928521674359
1758440530435649500,9.9736494140625,0.13021569493114948,0.06194470725953578,-0.014138043291692156
1758440530445619500,9.983619384765625,0.04792261164784431,0.08375321896374226,-0.05416704986221157
1758440530455589600,9.993589599609376,0.012832593566179275,0.09495032028257847,-0.040876163735054434
1758440530465560600,10.003560546875,-0.0020288754791021346,0.07941022132337093,-0.03502654265770688
1758440530475531500,10.013531494140626,0.026629648250341413,0.03508943355977535,-0.043079665128700435
1758440530485501400,10.02350146484375,0.06653145052790642,-0.01611585302054882,-0.016363040706160244
1758440530495472400,10.033472412109376,0.06653261957168578,-0.01652501834332943,0.011394310099590802
1758440530505442600,10.043442626953125,0.04946282682716846,-0.0259112708479166,0.015327411764819407
1758440530515413500,10.05341357421875,0.047665422016382214,-0.014593173497915267,-0.009626906559779309
1758440530525383400,10.063383544921875,0.06721884827017784,0.009653379008173943,-0.02241522944268072
1758440530535353300,10.073353271484375,0.04505728534460068,0.02908230209946632,-0.03084282266569789
1758440530545324500,10.083324462890625,0.06617080052196979,0.028326515296101567,-0.0370337246115203
1758440530555295500,10.09329541015625,0.07481061857342719,0.03879588686227798,-0.033638099957013036
1758440530565265400,10.103265380859375,0.09684592477083205,0.03802607153356075,-0.03105244226180948
1758440530575236600,10.113236572265626,0.12942308324873447,0.04401274472773075,-0.020165130694641265
1758440530585206500,10.12320654296875,0.13530863415598868,0.04571896412372589,0.004907874114671721
1758440530595176400,10.133176513671875,0.12041618545055388,0.04495090236067772,-0.00510537401472684
1758440530605147600,10.143147705078125,0.08899813387989998,0.02386310614645481,-0.0008078492090979125
1758440530615118600,10.15311865234375,0.06499708056747913,-0.01447451555430889,0.00727899286840693
1758440530625088500,10.163088623046875,0.04235737873613834,-0.03094458884000778,0.015103644912346498
1758440530635058700,10.17305859375,0.015192892956733702,-0.0077414079070091246,-0.0008945970524335279
1758440530645029600,10.183029541015625,-0.03236965320706367,0.004461655583977699,-0.015676727525988827
1758440530654999600,10.19299951171875,-0.027156302472949027,0.03170212920904159,-0.033500671097566374
1758440530664970800,10.202970703125,-0.009112111738324165,0.05727496188282966,-0.030127929561724883
1758440530674941400,10.21294140625,0.028054712617397306,0.044131987193226814,-0.03282136076362804
1758440530684911600,10.22291162109375,0.06717793173789978,0.017165069812536238,-0.018768775257194645
1758440530694881500,10.232881591796875,0.10672492922842503,-0.012395955714583396,-0.0069063829966180485
1758440530704852500,10.2428525390625,0.10451894361674785,-0.012892799320816993,-0.012234102516644633
1758440530714823400,10.252823486328126,0.11863865438401698,0.007758359041810035,-0.026484965382912194
1758440530724793300,10.26279345703125,0.0859212106525898,0.017526304340362547,-0.026923530330113132
1758440530734764500,10.2727646484375,0.045055531778931616,0.03090367230772972,-0.013133578956883865
1758440530744734500,10.282734375,0.006754150435328483,0.08223287752866744,0.002670943662992795
1758440530754705400,10.292705322265626,0.005684475377202034,0.10535714800655842,0.0033195020948187447
1758440530764675600,10.302675537109375,0.04657295060455799,0.06611702450811863,-0.023973482602194417
1758440530774646500,10.312646484375,0.05296820459961891,0.033736265385150906,-0.024702794673875903
1758440530784616400,10.322616455078125,0.040321488994359965,-0.0054500820994377135,-0.016951943085086532
1758440530794587600,10.332587646484376,0.06727087071835994,-0.026727263405919074,-0.0152504877708212
1758440530804557600,10.3425576171875,0.04870353289246559,-0.029607202756404875,-0.00294883929741045
1758440530814527500,10.352527587890625,0.0414788423359394,-0.005473462975025177,-0.011206854386226041
1758440530824498400,10.36249853515625,0.04826163434386253,0.029029110607504842,-0.023429132892691995
1758440530834469600,10.3724697265625,0.03444938209056854,0.034593758997321124,-0.011808846858877222
1758440530844439600,10.382439453125,0.013559738796949385,0.04852642275989055,-0.015211125016456935
1758440530854410800,10.39241064453125,0.029645196679234504,0.035844635841250416,-0.01496768306584563
1758440530864380700,10.402380615234375,0.07975684280395508,0.048485506227612496,-0.0037971643640805266
1758440530874350600,10.4123505859375,0.10392448485493659,0.05823357778191566,-0.002480146927537862
1758440530884321500,10.422321533203124,0.12803367471694946,0.03452829254567623,-0.02526604316338198
1758440530894292500,10.43229248046875,0.16275661305189132,-0.0030909517526626585,-0.01669664858318865
1758440530904262700,10.4422626953125,0.1699380489885807,-0.018562077128887175,0.012711985694081522
1758440530914233300,10.4522333984375,0.156682846096158,-0.01664776794016361,0.004183041284463252
1758440530924203500,10.46220361328125,0.10308043524622916,0.0012456161469221114,-0.00656868746211694
1758440530934174500,10.472174560546875,0.04113397442102432,0.017418752312660216,-0.027751208759332076
1758440530944144400,10.482144287109374,-0.01821545564830303,0.015618424892425537,-0.031945023170381316
1758440530954115600,10.492115478515625,-0.043591304445266724,0.023849077621102333,-0.05431962377515156
1758440530964085500,10.50208544921875,0.03197393188774585,0.04511223040223122,-0.05978733742940239
1758440530974056400,10.512056396484375,0.04456920956671238,0.07157704347968101,-0.04571378562510944
1758440530984026400,10.5220263671875,0.06505319466888904,0.058659109717607495,-0.030749333412677514
1758440530993997600,10.53199755859375,0.10081599744558334,0.05143617272675037,-0.012316621709434547
1758440531003967500,10.541967529296874,0.08729366804957389,0.039971360382437704,-0.002515335830283584
1758440531013938400,10.5519384765625,0.07155249356031418,0.008231237250566481,-0.009967083458200795
1758440531023908600,10.56190869140625,0.03121522247493267,-0.006381225469708442,0.00011071438245708122
1758440531033879600,10.571879638671875,0.012493570870161055,-0.004985971719026565,-0.004319627039582701
1758440531043849500,10.581849365234374,-0.017599954098463058,-0.0000672200173139572,0.010741420840052886
1758440531053820700,10.591820556640625,-0.03636661388874054,-0.028783611413836476,0.032284308444592166
1758440531063790600,10.60179052734375,-0.02072130098938942,-0.028532267001271247,0.0003666390720172785
1758440531073761500,10.611761474609375,0.017300094369053838,0.00030628947019577024,0.012256365722446934
1758440531083731700,10.621731689453124,0.06244213538765907,0.02367313653230667,0.021600052018719725
1758440531093702700,10.63170263671875,0.12387655503749846,0.03044014644920826,-0.013036351960373576
1758440531103672600,10.641672607421874,0.1385316878557205,0.058410687914490694,-0.044088718873658214
1758440531113643500,10.6516435546875,0.10130231965780258,0.045777416312694545,-0.015722941287892173
1758440531123613700,10.66161376953125,0.02743453489243984,0.007238719081878662,-0.006463390181938302
1758440531133584400,10.67158447265625,-0.01651975764632225,0.032709260424971576,-0.045044877954176624
1758440531143554600,10.681554443359374,-0.04020575366020202,0.057629182147979734,-0.020452172041672746
1758440531153525500,10.691525390625,-0.008521160107851028,0.03437222520112991,-0.02404205204308964
1758440531163495400,10.701495361328124,0.06455225940942765,0.02600362530648708,-0.05263730584455188
1758440531173466400,10.71146630859375,0.11937690553069114,0.023829203876852986,-0.031621497154305685
1758440531183436500,10.7214365234375,0.16346739166975022,0.0060702598243951795,-0.008362083388888277
1758440531193407500,10.731407470703125,0.21006372314989566,0.021338556104898453,-0.03705332207784522
1758440531203377400,10.74137744140625,0.1936275521337986,0.04527998818457126,-0.0392206516129896
1758440531213348600,10.7513486328125,0.14622691853344438,0.02688917596936226,-0.014119284933939342
1758440531223318500,10.761318603515624,0.10975216809511185,0.02207154655456543,0.021588096719444727
1758440531233289500,10.77128955078125,0.06866086377203465,0.009743395379185676,0.01079033344911877
1758440531243259400,10.78125927734375,0.05585983438789844,-0.0030038579910993575,-0.0007827732771125738
1758440531253230600,10.791230712890625,0.043616438886523244,0.005778583401441574,0.004344532581153908
1758440531263200500,10.801200439453124,0.02694996624588966,-0.002160977426171303,0.004350477408517326
1758440531273171500,10.81117138671875,-0.013229483929276465,0.043915129572153086,-0.023833612907200586
1758440531283141600,10.8211416015625,-0.017726795348525046,0.06339022989273072,-0.04113229392059147
1758440531293112600,10.831112548828125,0.0002437456279993057,0.06667699647843837,-0.02786815423646476
1758440531303082500,10.84108251953125,-0.00016249708533287046,0.0569768557190895,-0.020630878193001263
1758440531313053700,10.8510537109375,0.020314473754167554,0.014238953232765196,-0.0001401719453264377
1758440531323023600,10.861023681640624,0.07541150707602501,-0.019112112227082253,0.019214675269124563
1758440531332994600,10.87099462890625,0.09673252752423286,-0.041374212917685504,0.010603415450226748
1758440531342964700,10.88096484375,0.1037280855000019,-0.018007950377464294,0.003651946921700437
1758440531352935700,10.890935791015625,0.09475333640575409,0.027573651102185247,-0.02100096731414087
1758440531362905600,10.900905517578124,0.09311082989573478,0.041105332848429675,-0.05078489204405341
1758440531372876500,10.91087646484375,0.09547054476439952,0.05337912348806858,-0.04697703789342195
1758440531382846700,10.9208466796875,0.10710662202239037,0.04500526289641857,-0.02874380455983337
1758440531392817400,10.9308173828125,0.07754851910471916,0.0412830275028944,-0.02378006978878984
1758440531402787300,10.940787353515624,0.038270401683449744,0.016862871995568275,-0.008989877023076406
1758440531412758500,10.950758544921875,-0.002235211706161499,-0.005572831696271896,-0.009951117562444415
1758440531422728400,10.960728515625,-0.003449263671040535,0.006336801806092262,0.005743517796281958
1758440531432699400,10.970699462890625,-0.0007417582780122757,0.005040916776657104,-0.0047872805131279166
1758440531442669600,10.980669677734374,0.03190963447988033,0.0029348844081163407,-0.006247252367605688
1758440531452640500,10.990640625,0.041816111466288566,0.012310030996799469,-0.012569719687668839
1758440531462610400,11.0006103515625,0.06251636966764927,0.02506079149842262,-0.0035383062194508964
1758440531472581600,11.01058154296875,0.04363865071833133,0.011676993790268897,0.019902203158847987
1758440531482551600,11.020551513671874,0.0325689751714468,-0.010828268006443978,-0.018473973012104395
1758440531492522000,11.03052197265625,0.031115269231796264,0.0015635960549116134,-0.024199818154377863
1758440531502492200,11.0404921875,0.048234746336936946,0.03455401150882244,-0.009997281091997864
1758440531512463000,11.050463134765625,0.046101825961470604,0.0333358678907156,-0.023196927005436737
1758440531522433000,11.06043310546875,0.052281975901126855,0.04395429253876209,-0.034846003025607204
1758440531532404200,11.070404296875,0.054447629502415655,0.07792728928923606,-0.04614482485298067
1758440531542374100,11.0803740234375,0.005933481702208519,0.06777706667482852,-0.06085412184412125
1758440531552345000,11.090344970703125,0.019846856242418286,0.06175064599215984,-0.06357197510122786
1758440531562315000,11.10031494140625,0.043514147555828095,0.035680969712138175,-0.04360912322974764
1758440531572286200,11.1102861328125,0.08573883982300758,-0.014196283134818076,-0.015512587614485528
1758440531582256000,11.120256103515626,0.1444014566719532,-0.06747019268274307,0.014474130820174468
1758440531592227000,11.13022705078125,0.19792086541354656,-0.04509411022365093,0.04753131534189451
1758440531602197200,11.140197265625,0.2131499987274408,0.013076923716068268,0.07063617786641697
1758440531612168200,11.150168212890625,0.19210954878628253,0.02720189518034458,0.027362542801885863
1758440531622138000,11.16013818359375,0.1404582720041275,0.003468552893400192,-0.01019417363727698
1758440531632109000,11.170109130859375,0.07489245163798332,0.008927987343072891,-0.010948059602855937
1758440531642079200,11.180079345703126,0.03788753984570503,0.028410686448216437,-0.008618243257177527
1758440531652050000,11.1900498046875,0.006786883661150932,0.03142681939899921,-0.000802290542924311
1758440531662020000,11.20002001953125,-0.00841126999258995,0.03057867813706398,-0.015263761669280939
1758440531671991000,11.209990966796875,0.06930325332880019,0.01556990957558155,-0.004416730738506885
1758440531681961000,11.2199609375,0.05936345859467983,0.011633739170432091,-0.03689632543482585
1758440531691932000,11.229931884765625,0.036788054171204565,0.06517769783139228,-0.0874922228289768
1758440531701902000,11.239902099609376,-0.012068038934469222,0.06528817246854304,-0.07232000733409076
1758440531711873000,11.249873046875,-0.05407412001490593,0.038224224454164506,-0.040294843016029334
1758440531721843000,11.259843017578126,-0.04843874447643757,0.017862404426932335,-0.00834968284833012
1758440531731814100,11.269814208984375,-0.0024158289700746535,-0.0009989479094743728,0.00896231658764882
1758440531741784000,11.2797841796875,0.052110126465559,-0.025503274568915366,-0.0007986601140000857
1758440531751755000,11.289755126953125,0.12981588195860386,-0.04279693919718265,0.008662109227545442
1758440531761725200,11.29972509765625,0.13813187488317488,-0.02238309672176838,0.03539999049642356
1758440531771696000,11.309696044921875,0.06856032600700855,-0.026648352950811385,0.00583192501963058
1758440531781666000,11.319666015625,0.018140052324533463,-0.0021662381231784818,-0.02019239544419106
1758440531791637200,11.32963720703125,-0.04158756340742111,0.06353752940893173,-0.00282840153031575
1758440531801607200,11.339607177734376,-0.10177812047600746,0.0655477001875639,-0.01282774728605873
1758440531811578000,11.349578125,-0.054803603333234786,0.06234627379775047,-0.02005471085641766
1758440531821548000,11.359548095703126,0.05187748675346374,0.06318097105622292,-0.016873121678235473
1758440531831519200,11.369519287109375,0.14507950206398962,0.036140403917431826,-0.0233869057527394
1758440531841489200,11.3794892578125,0.2030944686591625,0.04543137935400009,-0.04836393937428947
1758440531851460000,11.389460205078125,0.20416531276106833,0.04052665617763996,-0.029411193843826185
1758440531861430300,11.39943017578125,0.09498889872729778,0.008017302238941192,-0.044039879329828543
1758440531871401000,11.40940087890625,0.011981529694795608,-0.0010655834048986434,-0.06646811210126616
1758440531881371100,11.41937109375,-0.015230886879563331,0.014582652103900908,-0.04148276959238573
1758440531891342000,11.429342041015625,0.00666238049864769,0.018379121777415273,0.008679768752644304
1758440531901312000,11.43931201171875,0.06835632786750793,0.005811316627264022,0.03934363867184147
1758440531911283000,11.449282958984375,0.1208428864300251,0.005135609322786331,0.02036797120680567
1758440531921252900,11.4592529296875,0.14647300224900245,0.027454408636689184,-0.005657747200480662
1758440531931224000,11.46922412109375,0.07202244915962219,0.025970307558774948,-0.0019261194991704541
1758440531941194000,11.479194091796876,0.043619361495971676,0.025026304706931114,-0.0017444587723526638
1758440531951165000,11.4891650390625,-0.004250058659911155,0.02819792048037052,-0.027603954908903685
1758440531961135000,11.499135009765626,-0.006104162093997001,0.03017594255506992,-0.03997034203570801
1758440531971106000,11.50910595703125,0.011688099706172942,0.03350421019494533,-0.03623161216510925
1758440531981076000,11.519075927734375,0.038246436285972595,0.012822072172164916,-0.020671433965675532
1758440531991047200,11.529047119140625,0.09461422019600868,0.043597734186053276,-0.009016857503191568
1758440532001017000,11.53901708984375,0.13028700660169124,0.05263385807871818,-0.0105656875305227
1758440532010988000,11.548988037109375,0.13716624472141264,0.026266075634956358,-0.0026836701430031098
1758440532020958200,11.558958251953126,0.11130348919034004,0.00774900669157505,-0.017212344162008956
1758440532030929200,11.56892919921875,0.03212181592583656,0.0027338088780641556,-0.03194608718288364
1758440532040899000,11.578899169921876,-0.06110825643539428,0.004721767824888229,-0.03914005152429454
1758440532050870300,11.588870361328125,-0.0773725780159235,0.02010638396143913,-0.028263370948994997
1758440532060840200,11.598840087890625,-0.0938069954663515,0.021771102303266524,-0.015997021547006444
1758440532070811100,11.60881103515625,-0.0243558580994606,0.019552841731905937,-0.004207429661159404
1758440532080781000,11.618781005859375,0.08284545646905898,0.00405599739253521,0.027903394513204692
1758440532090752000,11.628751953125,0.1934399206072092,0.003849661165475845,0.03317905391078675
1758440532100723000,11.638722900390626,0.2469657590895891,0.0012882862448692321,0.007332482329534832
1758440532110692900,11.64869287109375,0.17527824097275732,0.015317396119236945,-0.004883356161345728
1758440532120664000,11.6586640625,0.05956628769040107,0.021235095730423925,-0.03448835554422112
1758440532130634000,11.668634033203125,-0.03674889120459556,0.037352117794752115,-0.04322326571731828
1758440532140605000,11.67860498046875,-0.0998328316271305,0.05753332055807113,-0.056530354060605165
1758440532150575000,11.6885751953125,-0.12662146983146666,0.0352963543087244,-0.04474166179047897
1758440532160546000,11.698546142578126,-0.0457271474301815,0.014900047490000724,0.008063287671981379
1758440532170516000,11.708515869140625,0.060170683324337004,0.015758710145950316,0.006083830550377024
1758440532180487200,11.718487060546876,0.12928981225788594,0.01519347747862339,-0.00036794625475886273
1758440532190457000,11.72845703125,0.1825730741560459,0.04482873728573322,-0.01225441236902261
1758440532200428000,11.738427978515626,0.1507493643939495,0.03313596140444278,0.014288285966939292
1758440532210398000,11.74839794921875,0.07175298456847667,0.04263035045862198,-0.035237171467393635
1758440532220369200,11.758369140625,0.0009106851041316985,0.022849545189738273,-0.07979502852302975
1758440532230339000,11.768339111328125,-0.011256138029694556,-0.02273380985558033,-0.08037926728492602
1758440532240310300,11.778310302734376,0.06386778427660465,-0.022552023547887802,-0.03461985926966881
1758440532250280200,11.7882802734375,0.14689210444390774,-0.009521277061104774,0.00016606929039699025
1758440532260251100,11.798251220703126,0.21736557059586048,0.02903787843585014,0.03537441081388388
1758440532270221000,11.808220947265625,0.2186754841506481,0.07018705042600631,0.023582138347183354
1758440532280192300,11.818192138671876,0.166778123652935,0.028569676402211187,0.0034438819597358812
1758440532290162200,11.828162109375,0.07148001284599304,-0.0021428572475910186,-0.018982741093216463
1758440532300132900,11.8381328125,-0.041299394115805625,0.020116320833563805,-0.05605243435055017
1758440532310103300,11.848103271484375,-0.10855039108991622,0.03630640813410282,-0.02394601463995641
1758440532320074000,11.858073974609376,-0.13850363080501554,0.06186462776064872,0.0004719877261901274
1758440532330044000,11.8680439453125,-0.0924959128677845,0.058501873329281806,-0.020353344459831713
1758440532340015000,11.87801513671875,0.006379471904039383,0.05296820459961891,-0.021326267445483243
1758440532349985000,11.887985107421875,0.09689560913145541,0.036837154009938235,-0.023424548049119764
1758440532359956000,11.8979560546875,0.1344844582915306,0.010270634123682976,-0.03719943656724645
1758440532369926000,11.90792578125,0.12993220181465148,-0.029017420169711112,-0.02364501554952003
1758440532379897000,11.91789697265625,0.05345628037750721,-0.02564472886621952,-0.01693299635602161
1758440532389867000,11.927866943359374,-0.008192074283957481,-0.007650222492218017,0.0048303130831453015
1758440532399838000,11.937837890625,0.025897242322564122,0.02632745043337345,0.007244906794070266
1758440532409808100,11.94780810546875,0.07162497427463531,0.05477379271686077,-0.016683592738793232
1758440532419779000,11.957779052734375,0.09743512283563613,0.06879296571910382,-0.019040416964050382
1758440532429749000,11.9677490234375,0.13181670038700102,0.0805786805808544,-0.004717027717689052
1758440532439720200,11.97772021484375,0.13491232831478117,0.05559387692809105,-0.011210805617203005
1758440532449690000,11.987690185546874,0.13396072667837142,0.01381575938463211,-0.027126350292679853
1758440532459661000,11.9976611328125,0.06957154887616634,-0.019485621714591977,-0.02509326442934107
1758440532469631000,12.007630859375,0.05549217011928558,-0.031688685205578805,-0.01442169623839436
