time,seconds_elapsed,z,y,x
1758440520488869600,0.02686962890625,-0.08384302258491516,-0.02931150048971176,-0.08743365108966827
1758440520498839600,0.036839599609375,-0.07301567494869232,-0.02309435047209263,-0.03386257216334343
1758440520508809700,0.046809814453125,-0.05058978125452995,0.015393668785691261,0.03145045414566994
1758440520518780700,0.05678076171875,-0.016523154452443123,0.06659799814224243,0.10030408203601837
1758440520528750600,0.06675048828125,0.009459232911467552,0.10851728171110153,0.1621953845024109
1758440520538721800,0.0767216796875,0.027224648743867874,0.12093613296747208,0.18756014108657837
1758440520548691700,0.086691650390625,0.03802570700645447,0.12572599947452545,0.17489735782146454
1758440520558661600,0.09666162109375,0.04302738606929779,0.13822580873966217,0.1416025161743164
1758440520568632600,0.106632568359375,0.04120069742202759,0.15225324034690857,0.10441004484891891
1758440520578602800,0.116602783203125,0.04273414611816406,0.15487167239189148,0.07842718064785004
1758440520588573700,0.12657373046875,0.03976401314139366,0.1446439027786255,0.05837233364582062
1758440520598543600,0.136543701171875,0.03754160553216934,0.11235707253217697,0.0435800701379776
1758440520608513500,0.146513427734375,0.02893133834004402,0.06777042895555496,0.028966238722205162
1758440520618484700,0.156484619140625,0.015550285577774048,0.012185191735625267,0.011170465499162674
1758440520628454700,0.16645458984375,-0.001266969833523035,-0.02528558298945427,-0.011701809242367744
1758440520638425600,0.176425537109375,-0.015310350805521011,-0.027020366862416267,-0.02694893814623356
1758440520648395800,0.186395751953125,-0.02046256884932518,-0.032252237200737,-0.024136094376444817
1758440520658365700,0.19636572265625,-0.01919650286436081,-0.03777456656098366,-0.01519666239619255
1758440520668336600,0.206336669921875,-0.01914685219526291,-0.02436814084649086,-0.0065230936743319035
1758440520678306800,0.216306884765625,-0.02017989382147789,0.0009342867415398359,0.0014149905182421207
1758440520688277800,0.22627783203125,-0.01761934533715248,0.01785464957356453,0.010389253497123718
1758440520698247700,0.23624755859375,-0.013620341196656227,0.020238446071743965,0.014041779562830925
1758440520708217600,0.246217529296875,-0.008430810645222664,0.010082133114337921,0.007361894939094782
1758440520718188800,0.256188720703125,-0.008300581946969032,0.003753130557015538,-0.0001404962968081236
1758440520728158700,0.26615869140625,-0.008003768511116505,-0.005064557306468487,-0.008838631212711334
1758440520738129700,0.276129638671875,-0.006366190500557423,-0.011142956092953682,-0.02097359113395214
1758440520748099800,0.286099853515625,-0.006857582833617926,-0.015088813379406929,-0.03642408549785614
1758440520758069800,0.29606982421875,-0.0049358452670276165,-0.02846187725663185,-0.050224319100379944
1758440520768040700,0.306040771484375,-0.002788112498819828,-0.04951443150639534,-0.06025899201631546
1758440520778010600,0.3160107421875,0.0013722777366638184,-0.061572957783937454,-0.06558531522750854
1758440520787981800,0.32598193359375,0.0056091006845235825,-0.05701868608593941,-0.0563068613409996
1758440520797951700,0.33595166015625,0.005313489586114883,-0.03808840364217758,-0.03927008807659149
1758440520807921700,0.345921630859375,0.006477260962128639,-0.008878626860678196,-0.015228800475597382
1758440520817892900,0.355892822265625,0.009661868214607239,0.009160560555756092,0.007619789801537991
1758440520827862800,0.36586279296875,0.011983232572674751,0.022485345602035522,0.021106122061610222
1758440520837833700,0.375833740234375,0.012174712494015694,0.03728320077061653,0.02494852989912033
1758440520847803600,0.3858037109375,0.007845752872526646,0.03102671541273594,0.022542662918567657
1758440520857773800,0.39577392578125,0.0014075608924031258,0.02285533770918846,0.010353639721870422
1758440520867744800,0.405744873046875,-0.010307304561138153,0.01899542473256588,-0.004177980124950409
1758440520877714700,0.415714599609375,-0.015801139175891876,0.003687575226649642,-0.010725894942879677
1758440520887686000,0.425685791015625,-0.015983162447810173,-0.012920125387609005,-0.014358162879943848
1758440520897655800,0.43565576171875,-0.019296133890748024,-0.034002240747213364,-0.013094226829707623
1758440520907625700,0.445625732421875,-0.016927344724535942,-0.03742903843522072,-0.014673568308353424
1758440520917597000,0.455596923828125,-0.014213316142559052,-0.020790940150618553,-0.01627785712480545
1758440520927566800,0.46556689453125,-0.007292985916137695,-0.00758858909830451,-0.017194896936416626
1758440520937537800,0.475537841796875,-0.002636183053255081,-0.0004015164449810982,-0.01397087424993515
1758440520947507700,0.4855078125,0.0030032810755074024,-0.0009279514197260141,-0.0005237082950770855
1758440520957478000,0.495477783203125,0.004925817251205444,0.009624024853110313,0.012063989415764809
1758440520967448800,0.50544873046875,0.0002743473742157221,0.027922680601477623,0.02484160289168358
1758440520977418800,0.515418701171875,-0.004855966195464134,0.048645537346601486,0.02636067010462284
1758440520987389700,0.5253896484375,-0.004310002084821463,0.04435506835579872,0.022588903084397316
1758440520997359900,0.53535986328125,-0.0019294028170406818,0.009767267853021622,0.004443188197910786
1758440521007329800,0.545329833984375,-0.005664912052452564,-0.03765564411878586,-0.016869941726326942
1758440521017300500,0.555300537109375,-0.017657127231359482,-0.06614480912685394,-0.036509957164525986
1758440521027271000,0.56527099609375,-0.021765297278761864,-0.05176404118537903,-0.049848832190036774
1758440521037241600,0.57524169921875,-0.01958496682345867,-0.017281966283917427,-0.04731083661317825
1758440521047211500,0.58521142578125,-0.008964506909251213,0.010186262428760529,-0.04069750756025314
1758440521057181700,0.595181640625,-0.0013470682315528393,0.014872893691062927,-0.0347333624958992
1758440521067152600,0.605152587890625,0.0035583784338086843,0.01773720420897007,-0.036993443965911865
1758440521077122800,0.615122802734375,0.004530432168394327,0.009219084866344929,-0.03461044281721115
1758440521087093500,0.625093505859375,0.009506499394774437,0.0037623359821736813,-0.023612583056092262
1758440521097063700,0.635063720703125,0.0016837306320667267,0.017996134236454964,-0.011007041670382023
1758440521107033900,0.645033935546875,-0.00035898108035326004,0.027461916208267212,0.0008932566270232201
1758440521117004500,0.655004638671875,-0.0031861928291618824,0.018891597166657448,0.009422296658158302
1758440521126974500,0.664974365234375,-0.00421008700504899,0.004944212734699249,0.007983524352312088
1758440521136945700,0.674945556640625,-0.00532142398878932,-0.010481082834303379,0.0018505314365029335
1758440521146915600,0.68491552734375,-0.00635317200794816,-0.02904609777033329,-0.0039768945425748825
1758440521156885500,0.694885498046875,-0.0049784486182034016,-0.01573881506919861,-0.011530417948961258
1758440521166856700,0.704856689453125,-0.0015358319506049156,0.01438978873193264,-0.012728279456496239
1758440521176826600,0.71482666015625,-0.002529990393668413,0.023874370381236076,-0.0007730831857770681
1758440521186797600,0.724797607421875,-0.005482248496264219,0.03233778476715088,0.002123052254319191
1758440521196767700,0.734767822265625,-0.001480848528444767,0.04427700117230415,-0.00519211869686842
1758440521206737700,0.744737548828125,-0.0003302190452814102,0.04123072326183319,-0.01538851112127304
1758440521216708600,0.75470849609375,0.0034594591706991196,0.023567307740449905,-0.02447468414902687
1758440521226678500,0.764678466796875,0.007365737576037645,-0.0015811037737876177,-0.03399457037448883
1758440521236649700,0.774649658203125,0.0030996198765933514,-0.026929069310426712,-0.0301247276365757
1758440521246619600,0.78461962890625,0.001920943846926093,-0.03761596232652664,-0.013754963874816895
1758440521256589600,0.794589599609375,0.0013664737343788147,-0.02448285184800625,0.007463240530341864
1758440521266560800,0.804560791015625,0.0010760452132672071,0.003950806334614754,0.02959245815873146
1758440521276530700,0.81453076171875,0.00022090435959398746,0.030187739059329033,0.04939758777618408
1758440521286501600,0.824501708984375,-0.0060487957671284676,0.0497954897582531,0.06113276258111
1758440521296471600,0.834471435546875,-0.0031872293911874294,0.05963214114308357,0.07251192629337311
1758440521306442800,0.84444287109375,0.0036633419804275036,0.06200304254889488,0.07168123126029968
1758440521316412700,0.85441259765625,0.009627491235733032,0.05682665482163429,0.05217623710632324
1758440521326382600,0.864382568359375,0.012285599485039711,0.033368807286024094,0.032542385160923004
1758440521336353800,0.874353759765625,0.011660022661089897,0.0015536202117800713,0.01752801425755024
1758440521346323700,0.88432373046875,0.015048363246023655,-0.009085973724722862,0.00997448991984129
1758440521356294700,0.894294677734375,0.012533806264400482,-0.0025633603800088167,0.010862121358513832
1758440521366264600,0.9042646484375,0.00951828807592392,0.012631608173251152,0.01853671669960022
1758440521376234800,0.91423486328125,0.004222857765853405,0.01726284623146057,0.029217056930065155
1758440521386205700,0.924205810546875,0.004021019209176302,0.018403783440589905,0.032874781638383865
1758440521396175600,0.934175537109375,-0.0018493863753974438,0.013474805280566216,0.02603817917406559
1758440521406146800,0.944146728515625,-0.008542384952306747,-0.003070350270718336,0.011333702132105827
1758440521416116700,0.95411669921875,-0.008963696658611298,-0.017698828130960464,-0.005230894312262535
1758440521426086700,0.964086669921875,-0.006094959564507008,-0.027416851371526718,-0.01758929342031479
1758440521436057900,0.974057861328125,-0.0014922181144356728,-0.039366453886032104,-0.0236679594963789
1758440521446027800,0.98402783203125,0.0017715995199978352,-0.03348878398537636,-0.020129499956965446
1758440521455998700,0.993998779296875,0.003270959248766303,-0.025772539898753166,-0.009342631325125694
1758440521465968600,1.00396875,0.005234241485595703,-0.011118496768176556,0.011502462439239025
1758440521475939000,1.01393896484375,0.00981967244297266,0.006944392807781696,0.0316639244556427
1758440521485910000,1.023909912109375,0.01041853055357933,0.013061290606856346,0.045223526656627655
1758440521495880200,1.033880126953125,0.007359623443335295,0.01669144630432129,0.04413029924035072
1758440521505851100,1.04385107421875,0.008227855898439884,0.022748729214072227,0.027739020064473152
1758440521515821000,1.053821044921875,0.005140187218785286,0.014417029917240143,0.00576447881758213
1758440521525792000,1.0637919921875,-0.00023370422422885895,-0.011355521157383919,-0.007831647992134094
1758440521535762200,1.07376220703125,-0.003715787548571825,-0.03397081792354584,-0.01234836969524622
1758440521545732000,1.083732177734375,-0.006365710403770208,-0.036139003932476044,-0.014663894660770893
1758440521555703000,1.093703125,-0.008792383596301079,-0.011360952630639076,-0.00973704643547535
1758440521565673200,1.103673095703125,-0.009106249548494816,0.010426930151879787,0.005402606911957264
1758440521575644000,1.113643798828125,-0.0064920904114842415,0.019960515201091766,0.02032722905278206
1758440521585614000,1.123614013671875,-0.00265182601287961,0.02296440675854683,0.028215177357196808
1758440521595584000,1.133583984375,-0.000010236632078886032,0.017720907926559448,0.024592744186520576
1758440521605555000,1.143554931640625,0.0022440068423748016,0.003813197836279869,0.01375799160450697
1758440521615525000,1.153525146484375,0.00402433006092906,-0.019505707547068596,0.0006355317309498787
1758440521625496000,1.16349609375,0.007604669313877821,-0.02941894344985485,-0.008323676884174347
1758440521635466000,1.173466064453125,0.0053207422606647015,-0.021248897537589073,-0.019636785611510277
1758440521645436200,1.183436279296875,-0.0022407709620893,-0.0014309854013845325,-0.021841615438461304
1758440521655406800,1.19340673828125,-0.004984625615179539,0.016051867976784706,-0.017202390357851982
1758440521665377000,1.203376953125,-0.0010661729611456394,0.02935153990983963,-0.008217365480959415
1758440521675348000,1.213347900390625,-0.0005351384170353413,0.03357797861099243,-0.004309709183871746
1758440521685318000,1.22331787109375,-0.0038410783745348454,0.02213304303586483,-0.0011396040208637714
1758440521695288000,1.2332880859375,-0.011440674774348736,-0.006174493581056595,0.004054092802107334
1758440521705259000,1.243259033203125,-0.005622788332402706,-0.028607893735170364,0.009801284410059452
1758440521715229000,1.25322900390625,0.0035914822947233915,-0.018844744190573692,0.01207828801125288
1758440521725200000,1.263199951171875,0.00933813489973545,-0.006038634106516838,0.011401626281440258
1758440521735170000,1.273170166015625,0.009231874719262123,-0.0017030078452080488,0.012534535489976406
1758440521745141000,1.28314111328125,0.008907495066523552,0.007675504311919212,0.009509416297078133
1758440521755111000,1.29311083984375,0.006885089911520481,0.008445157669484615,0.005784719251096249
1758440521765080800,1.303080810546875,0.001559757860377431,0.000251108780503273,0.009866952896118164
1758440521775052000,1.313052001953125,-0.004072561860084534,-0.004854703322052956,0.01123102381825447
1758440521785022000,1.32302197265625,-0.0065016113221645355,-0.0028195560444146395,0.004939149599522352
1758440521794993000,1.332992919921875,-0.007947441190481186,-0.0003864921163767576,-0.002247923519462347
1758440521804963000,1.342963134765625,-0.009483259171247482,0.005892479792237282,-0.0022195507772266865
1758440521814933000,1.35293310546875,-0.005090107675641775,0.011399630457162857,0.00030059879645705223
1758440521824904000,1.362904052734375,0.002452976070344448,0.0190657339990139,0.0012169694527983665
1758440521834873900,1.372873779296875,0.002757641486823559,0.01598898321390152,-0.005577287171036005
1758440521844845000,1.382844970703125,-0.0010109511204063892,-0.010616266168653965,-0.008640468120574951
1758440521854815000,1.39281494140625,-0.0009443722665309906,-0.027512159198522568,-0.010534241795539856
1758440521864785000,1.402784912109375,-0.001364502590149641,-0.021530620753765106,-0.011806788854300976
1758440521874756000,1.412756103515625,0.0021745720878243446,0.002287093084305525,-0.0074197640642523766
1758440521884726000,1.42272607421875,0.0017792708240449429,0.022293519228696823,0.004356431774795055
1758440521894697000,1.432697021484375,0.0033635853324085474,0.04001419246196747,0.013964316807687283
1758440521904667100,1.442667236328125,0.0028479485772550106,0.04086214303970337,0.01798890344798565
1758440521914638000,1.45263818359375,-0.0002668844535946846,0.02685444802045822,0.009639628231525421
1758440521924608000,1.46260791015625,-0.0006777970120310783,-0.0009783616987988353,-0.0026899361982941628
1758440521934578000,1.472577880859375,-0.006903734523802996,-0.02362668141722679,-0.01428320910781622
1758440521944549000,1.482549072265625,-0.006234748754650354,-0.02644137665629387,-0.02376166544854641
1758440521954519000,1.49251904296875,-0.008994583040475845,-0.01694188266992569,-0.01997651532292366
1758440521964490000,1.502489990234375,-0.007401199545711279,-0.01084122620522976,-0.006497120019048452
1758440521974460200,1.512460205078125,-0.0008697966113686562,-0.00832453928887844,0.013524791225790977
1758440521984430000,1.52243017578125,0.004095905926078558,-0.005890979431569576,0.025182900950312614
1758440521994401000,1.532401123046875,0.006898083724081516,0.0011458906810730696,0.026390645653009415
1758440522004371000,1.542370849609375,0.0043315826915204525,0.003803308354690671,0.02160966768860817
1758440522014342100,1.552342041015625,0.0025544550735503435,-0.007337227463722229,0.014288636855781078
1758440522024312000,1.56231201171875,-0.0020785597153007984,-0.015862300992012024,-0.00029964116401970387
1758440522034283000,1.572282958984375,-0.005150782875716686,-0.017667658627033234,-0.008685935288667679
1758440522044253200,1.582253173828125,-0.006474472116678953,-0.01277155801653862,-0.008203430101275444
1758440522054223000,1.59222314453125,-0.0004032640717923641,0.0032071424648165703,-0.004697112366557121
1758440522064194000,1.602194091796875,0.0023624678142368793,0.016201158985495567,0.0010885568335652351
1758440522074164200,1.612164306640625,-0.0009323949925601482,0.010693473741412163,0.004416442476212978
1758440522084135200,1.62213525390625,-0.007284012623131275,-0.006209913641214371,0.0047292038798332214
1758440522094105000,1.63210498046875,-0.009934657253324986,-0.016939789056777954,-0.003669340629130602
1758440522104075000,1.642074951171875,-0.00942298211157322,-0.02307122014462948,-0.019816886633634567
1758440522114046200,1.652046142578125,-0.007405104581266642,-0.0359119176864624,-0.025293678045272827
1758440522124016000,1.66201611328125,0.0015675213653594255,-0.03500150144100189,-0.019925080239772797
1758440522133987000,1.671987060546875,0.010089903138577938,-0.010723058134317398,-0.008894266560673714
1758440522143957200,1.681957275390625,0.011627442203462124,0.0037422843743115664,0.00910424254834652
1758440522153928000,1.691927978515625,0.010088667273521423,0.008954622782766819,0.020167812705039978
1758440522163898000,1.701898193359375,0.008096130564808846,0.006127865053713322,0.020699594169855118
1758440522173868000,1.711867919921875,0.004661452025175095,-0.0064209504052996635,0.009017372503876686
1758440522183839000,1.7218388671875,-0.0010963487438857555,-0.02560369484126568,-0.006159968674182892
1758440522193809200,1.73180908203125,-0.0015376345254480839,-0.028243687003850937,-0.017487989738583565
1758440522203779800,1.74177978515625,-0.002187588717788458,-0.017858536913990974,-0.02487885020673275
1758440522213750000,1.75175,-0.004433698486536741,-0.008849329315125942,-0.023461783304810524
1758440522223720200,1.76172021484375,-0.003780672326683998,0.000845867907628417,-0.02104831486940384
1758440522233691000,1.77169091796875,-0.013330502435564995,0.007589258253574371,-0.02304062619805336
1758440522243660800,1.781660888671875,-0.017587069422006607,-0.0007985519478097558,-0.021626710891723633
1758440522253632000,1.791632080078125,-0.018399067223072052,-0.008703879080712795,-0.01291098352521658
1758440522263602000,1.801601806640625,-0.01377170067280531,-0.004787812940776348,-0.0022650540340691805
1758440522273572900,1.81157275390625,-0.006063448265194893,0.000026117078959941864,0.007955092936754227
1758440522283543000,1.82154296875,0.003199193626642227,0.0044662849977612495,0.011837655678391457
1758440522293513000,1.831512939453125,0.011980168521404266,-0.00036681978963315487,0.010695958510041237
1758440522303484000,1.84148388671875,0.012566572055220604,-0.008114788681268692,0.008643843233585358
1758440522313454000,1.8514541015625,0.008371293544769287,-0.015724504366517067,0.005440060049295425
1758440522323425000,1.861425048828125,0.005092907231301069,-0.025023911148309708,0.00298599386587739
1758440522333395000,1.87139501953125,-0.0008898843079805374,-0.017682373523712158,0.005155138671398163
1758440522343366100,1.8813662109375,-0.006727516185492277,0.00794944167137146,0.007698573172092438
1758440522353336000,1.891336181640625,-0.011255422607064247,0.0240786112844944,0.010250414721667767
1758440522363306000,1.901305908203125,-0.00658099539577961,0.02081289328634739,0.005368443671613932
1758440522373277000,1.91127685546875,-0.00453622080385685,0.005819561891257763,-0.002012506825849414
1758440522383247000,1.9212470703125,-0.003879852592945099,-0.007762616500258446,-0.015999160706996918
1758440522393218000,1.931218017578125,-0.004117673262953758,-0.0114566870033741,-0.027538903057575226
1758440522403188000,1.94118798828125,-0.00578949972987175,-0.016955718398094177,-0.0315069742500782
1758440522413159200,1.9511591796875,-0.0010533342137932777,-0.02190307341516018,-0.02848934568464756
1758440522423129000,1.961129150390625,0.002003321424126625,-0.01850709319114685,-0.02107553370296955
1758440522433099000,1.97109912109375,0.005519759375602007,-0.015901722013950348,-0.007485424168407917
1758440522443070000,1.981070068359375,0.007940969429910183,-0.0031010096427053213,0.010137490928173065
1758440522453040000,1.9910400390625,0.011463532224297523,0.01563885435461998,0.022008532658219337
1758440522463011000,2.001010986328125,0.00996339414268732,0.028390364721417427,0.027492143213748932
1758440522472981000,2.01098095703125,0.002690301276743412,0.031263649463653564,0.02470754086971283
1758440522482951200,2.020951171875,-0.004296956583857536,0.026473646983504295,0.014847774058580399
1758440522492921000,2.030921142578125,-0.008981456980109215,0.01170269027352333,0.001530371606349945
1758440522502891000,2.04089111328125,-0.009413957595825195,-0.010683114640414715,-0.012330625206232071
1758440522512862200,2.0508623046875,-0.009478673338890076,-0.02916412055492401,-0.02268632873892784
1758440522522832100,2.06083203125,-0.0051860506646335125,-0.028930451720952988,-0.026993393898010254
1758440522532803000,2.070802978515625,-0.001758561935275793,-0.02924204245209694,-0.01544885616749525
1758440522542773200,2.080773193359375,0.002140035154297948,-0.020146623253822327,0.0017444686964154243
1758440522552744200,2.090744140625,0.0036471181083470583,0.0027349921874701977,0.017121028155088425
1758440522562714000,2.100714111328125,0.003895903704687953,0.024355262517929077,0.026722142472863197
1758440522572685300,2.110685302734375,0.003532648552209139,0.032387625426054,0.03282131254673004
1758440522582655200,2.1206552734375,0.0037583159282803535,0.026394963264465332,0.02705339342355728
1758440522592625200,2.130625244140625,0.0014730573166161776,0.004971429705619812,0.011353792622685432
1758440522602596000,2.14059619140625,-0.004971403628587723,-0.019305862486362457,-0.005406384821981192
1758440522612566300,2.150566162109375,-0.0044883061200380325,-0.0248633474111557,-0.019692912697792053
1758440522622537200,2.160537109375,0.0006239155773073435,-0.013421582989394665,-0.026752516627311707
1758440522632507100,2.170507080078125,-0.002588389441370964,-0.017046146094799042,-0.019955864176154137
1758440522642478300,2.180478271484375,-0.0019754739478230476,-0.014125106856226921,-0.01004075352102518
1758440522652448300,2.1904482421875,-0.0033179735764861107,-0.0014604436000809073,0.003877991810441017
1758440522662419200,2.200419189453125,0.002153608947992325,0.002713808324187994,0.017704440280795097
1758440522672389400,2.210389404296875,0.007043172605335712,0.0071093556471168995,0.022547133266925812
1758440522682360000,2.220360107421875,0.003014584770426154,0.006115032825618982,0.015933707356452942
1758440522692330200,2.230330322265625,0.000056611839681863785,-0.0036092340014874935,0.005791057832539082
1758440522702300200,2.240300048828125,3.119930624961853e-7,-0.014525329694151878,-0.008647250011563301
1758440522712271000,2.25027099609375,-0.004521469585597515,-0.011662431992590427,-0.017871374264359474
1758440522722241300,2.2602412109375,-0.0004059337079524994,-0.01429197657853365,-0.017512455582618713
1758440522732212000,2.2702119140625,0.0027533743996173143,-0.006331522483378649,-0.014862077310681343
1758440522742182100,2.28018212890625,-0.0021389788016676903,0.004698600620031357,-0.010493364185094833
1758440522752153000,2.290153076171875,-0.006401101592928171,0.003268749685958028,-0.0017339612822979689
1758440522762123000,2.300123046875,-0.005171284079551697,-0.002381121041253209,0.0064781298860907555
1758440522772094200,2.31009423828125,-0.0031840335577726364,-0.009024109691381454,0.006481591612100601
1758440522782064000,2.320064208984375,-0.002806274686008692,-0.014022511430084705,-0.0001444618683308363
1758440522792035000,2.33003515625,-0.0002416502684354782,-0.01582866720855236,-0.004506187047809362
1758440522802005000,2.3400048828125,0.0067740753293037415,-0.012162089347839355,-0.0071259234100580215
1758440522811975200,2.34997509765625,0.0067525035701692104,-0.014931511133909225,-0.00603163056075573
1758440522821946000,2.359946044921875,0.007327873259782791,-0.015409390442073345,-0.005378155503422022
1758440522831916000,2.369916015625,0.005822654347866774,-0.013116941787302494,-0.010518589057028294
1758440522841887200,2.37988720703125,0.0027368497103452682,-0.012804286554455757,-0.011560950428247452
1758440522851857200,2.389857177734375,0.0005791564472019672,-0.005851571913808584,-0.004740062169730663
1758440522861828000,2.399828125,0.003263475140556693,0.013941320590674877,0.0026386063545942307
1758440522871798300,2.40979833984375,0.0026216532569378614,0.027759132906794548,0.012329050339758396
1758440522881769200,2.419769287109375,-0.00042780954390764236,0.030282562598586082,0.017425166442990303
1758440522891739100,2.4297392578125,-0.0038299979642033577,0.027167463675141335,0.014433370903134346
1758440522901709000,2.439708984375,-0.008930590003728867,0.014264384284615517,0.005191685166209936
1758440522911680300,2.44968017578125,-0.008182774297893047,0.0038391745183616877,-0.008114266209304333
1758440522921650200,2.459650146484375,-0.0062222909182310104,-0.008803153410553932,-0.018183965235948563
1758440522931621000,2.46962109375,-0.005233991891145706,-0.021330397576093674,-0.01937999203801155
1758440522941591300,2.47959130859375,-0.0018607997335493565,-0.019112806767225266,-0.01822228729724884
1758440522951562200,2.489562255859375,0.0019435258582234383,-0.0081570940092206,-0.008542761206626892
1758440522961532200,2.4995322265625,0.002056542783975601,0.006415977142751217,0.00663188099861145
1758440522971503400,2.50950341796875,0.00807182490825653,0.018269440159201622,0.019523445516824722
1758440522981473300,2.519473388671875,0.006316264625638723,0.02499225176870823,0.026391958817839622
1758440522991444200,2.5294443359375,0.004768169019371271,0.024830332025885582,0.026699287816882133
1758440523001414100,2.5394140625,-0.0017222287133336067,0.018403448164463043,0.015211922116577625
1758440523011384300,2.54938427734375,-0.006252532359212637,0.004513464868068695,-0.003229668829590082
1758440523021355300,2.559355224609375,-0.009616641327738762,-0.0205988846719265,-0.018261127173900604
1758440523031325200,2.5693251953125,-0.010228635743260384,-0.03264915570616722,-0.025412512943148613
1758440523041296100,2.579296142578125,-0.00853273831307888,-0.02059869095683098,-0.028849899768829346
1758440523051266300,2.589266357421875,-0.0057657137513160706,-0.007061842828989029,-0.021783731877803802
1758440523061237000,2.599237060546875,-0.0006385440938174725,0.006483331322669983,-0.010433891788125038
1758440523071207200,2.609207275390625,0.0018922577146440744,0.013886918313801289,0.0034608840942382812
1758440523081178000,2.61917822265625,0.005541018210351467,0.01706055924296379,0.011321930214762688
1758440523091148000,2.62914794921875,0.006245690863579512,0.01441098004579544,0.011546701192855835
1758440523101119000,2.639118896484375,0.007591665722429752,0.008528541773557663,0.00982483010739088
1758440523111089200,2.649089111328125,0.007992205210030079,-0.003613076638430357,0.0015069791115820408
1758440523121060000,2.65906005859375,0.0030976952984929085,-0.020076796412467957,-0.0028823702596127987
1758440523131030000,2.669030029296875,-0.0033522145822644234,-0.027406882494688034,-0.010288887657225132
1758440523141000200,2.679000244140625,-0.007793957833200693,-0.024732621386647224,-0.013546624220907688
1758440523150971100,2.68897119140625,-0.009409964084625244,-0.015606767497956753,-0.012674705125391483
1758440523160941000,2.698941162109375,-0.0076267309486866,-0.00212567369453609,-0.005578398238867521
1758440523170912300,2.708912353515625,-0.0045385295525193214,0.01512974500656128,0.0027085603214800358
1758440523180882200,2.718882080078125,0.0005971346981823444,0.02343737706542015,0.008743543177843094
1758440523190853000,2.72885302734375,0.0022669367026537657,0.017666306346654892,0.00684151379391551
1758440523200823000,2.738822998046875,0.004593453370034695,0.0032326781656593084,0.0024806372821331024
1758440523210794200,2.748794189453125,0.004253367893397808,-0.012544154189527035,-0.008644985035061836
1758440523220764200,2.75876416015625,0.0024877041578292847,-0.02025272510945797,-0.02043733187019825
1758440523230734000,2.768734130859375,-0.0030380887910723686,-0.02493775635957718,-0.02549893595278263
1758440523240705300,2.778705322265625,-0.003522770944982767,-0.025226492434740067,-0.02764717862010002
1758440523250675200,2.78867529296875,-0.003295336849987507,-0.03710285946726799,-0.03182674199342728
1758440523260646100,2.798646240234375,-0.0034610931761562824,-0.05673714354634285,-0.04640066251158714
1758440523270616000,2.808615966796875,-0.013466057367622852,-0.043832000344991684,-0.043165720999240875
1758440523280587300,2.818587158203125,-0.00931958295404911,-0.01798105426132679,-0.025017498061060905
1758440523290557200,2.82855712890625,0.0009535606950521469,0.017495179548859596,0.00012540537863969803
1758440523300528000,2.838528076171875,0.00709897605702281,0.03779634088277817,0.017309334129095078
1758440523310498300,2.848498291015625,0.006218801252543926,0.030819125473499298,0.025014391168951988
1758440523320469200,2.85846923828125,0.003631287720054388,0.021132363006472588,0.019773686304688454
1758440523330439200,2.868439208984375,0.00529576325789094,0.014860618859529495,0.010466469451785088
1758440523340409000,2.8784091796875,0.0005118970293551683,0.013556228019297123,-0.0030464432202279568
1758440523350380300,2.88838037109375,-0.005994737613946199,0.012032633647322655,-0.01349642127752304
1758440523360350200,2.89835009765625,-0.005346917547285557,0.002993440255522728,-0.014070533215999603
1758440523370321200,2.908321044921875,-0.0009867907501757145,0.0033018342219293118,-0.019175013527274132
1758440523380291300,2.918291259765625,-0.0013457806780934334,0.002002017805352807,-0.019813330844044685
1758440523390262000,2.928261962890625,-0.0015005101449787617,-0.006025282666087151,-0.01725696213543415
1758440523400232200,2.938232177734375,0.0003813980147242546,-0.014092782512307167,-0.01435320358723402
1758440523410203100,2.948203125,-0.002123038750141859,-0.01820763200521469,-0.008220477029681206
1758440523420173000,2.958173095703125,-0.0022717700339853764,-0.01896625943481922,-0.001381146488711238
1758440523430144000,2.96814404296875,0.0018838264513760805,-0.002098862314596772,0.0029787146486341953
1758440523440114200,2.9781142578125,0.0014663951005786657,0.0052464609034359455,0.006399738602340221
1758440523450084000,2.988083984375,-0.0007307128980755806,0.0055900090374052525,0.008205628022551537
1758440523460055000,2.998054931640625,-0.001667071133852005,-0.002053650328889489,0.0041571748442947865
1758440523470025000,3.00802490234375,-0.0017714672721922398,-0.010685487650334835,-0.0026788930408656597
1758440523479996200,3.01799609375,-0.003851438406854868,-0.014556316658854485,-0.012330087833106518
1758440523489966000,3.027966064453125,-0.005111646372824907,-0.010738675482571125,-0.025897029787302017
1758440523499937000,3.03793701171875,-0.00001767044886946678,-0.013613038696348667,-0.028510235249996185
1758440523509907200,3.0479072265625,0.006206403020769358,-0.02449258416891098,-0.024117350578308105
1758440523519878100,3.057878173828125,0.009529884904623032,-0.020879920572042465,-0.018427085131406784
1758440523529848000,3.06784814453125,0.009362637996673584,-0.014792466536164284,-0.013332458212971687
1758440523539819300,3.0778193359375,0.007026538252830505,-0.015326796099543571,0.0009061265736818314
1758440523549789200,3.0877890625,0.01036427728831768,-0.007210280746221542,0.013746025040745735
1758440523559759000,3.097759033203125,0.010431015864014626,0.0020560554694384336,0.024270005524158478
1758440523569730000,3.10772998046875,0.00765786599367857,0.007347490638494492,0.03325311467051506
1758440523579700200,3.1177001953125,0.0021363068372011185,0.01689901575446129,0.03503797575831413
1758440523589671200,3.127671142578125,0.0013807679060846567,0.02634285017848015,0.03159477561712265
1758440523599641000,3.13764111328125,-0.0034410208463668823,0.025310305878520012,0.023391950875520706
1758440523609612300,3.1476123046875,-0.006744139362126589,0.014836626127362251,0.011646346189081669
1758440523619582200,3.157582275390625,-0.007537785451859236,0.0024237323086708784,-0.003732871264219284
1758440523629553200,3.16755322265625,-0.010569527745246887,-0.01202817726880312,-0.0166433434933424
1758440523639523300,3.1775234375,-0.008783195167779922,-0.029807383194565773,-0.023521292954683304
1758440523649494300,3.187494384765625,-0.007640432566404343,-0.03465034067630768,-0.022219272330403328
1758440523659464200,3.197464111328125,-0.005826553329825401,-0.021288728341460228,-0.013563200831413269
1758440523669434000,3.20743408203125,-0.00017718970775604248,0.005051531363278627,-0.002875935286283493
1758440523679405300,3.2174052734375,0.003357767593115568,0.029003117233514786,0.008274028077721596
1758440523689375200,3.227375244140625,0.002277323044836521,0.030563198029994965,0.01455402746796608
1758440523699346200,3.23734619140625,0.001748005161061883,0.013165045529603958,0.010065119713544846
1758440523709316400,3.24731640625,-0.005538403522223234,-0.0017521188128739595,-0.0015268214046955109
1758440523719287000,3.257287109375,-0.010984847322106361,-0.019106291234493256,-0.011254148557782173
1758440523729257200,3.26725732421875,-0.011498037725687027,-0.026791641488671303,-0.01880900375545025
1758440523739228200,3.277228271484375,-0.01176700834184885,-0.0169705580919981,-0.020716272294521332
1758440523749198000,3.287197998046875,-0.006819920614361763,0.004954447969794273,-0.012385638430714607
1758440523759169000,3.2971689453125,-0.0032478845678269863,0.030195949599146843,-0.0006942406762391329
1758440523769139000,3.307138916015625,0.0011633753310889006,0.02946304716169834,0.007404964417219162
1758440523779110100,3.317110107421875,0.0042824218980968,0.011111008003354073,0.0090940585359931
1758440523789080000,3.327080078125,0.00869421474635601,-0.0019408778753131628,-0.0009204922243952751
1758440523799050000,3.337050048828125,0.006533063016831875,-0.014396409504115582,-0.015520697459578514
1758440523809021200,3.347021240234375,0.0021729362197220325,-0.027425391599535942,-0.02288993075489998
1758440523818991000,3.3569912109375,0.0008167019113898277,-0.013436665758490562,-0.026467546820640564
1758440523828962000,3.366962158203125,0.0010457339230924845,0.006520530674606562,-0.01664873957633972
1758440523838932200,3.37693212890625,0.0018586697988212109,0.01916213147342205,0.0018970468081533909
1758440523848903200,3.386903076171875,0.002171857748180628,0.014716783538460732,0.018648594617843628
1758440523858873000,3.396873046875,0.003456288017332554,0.008004602044820786,0.028606291860342026
1758440523868844300,3.40684423828125,0.0006618329789489508,0.0037571268621832132,0.029447849839925766
1758440523878814200,3.416814208984375,0.0014702633488923311,0.005378663539886475,0.02433592453598976
1758440523888784100,3.4267841796875,-0.0007175235077738762,0.002460105111822486,0.01693446934223175
1758440523898755000,3.436755126953125,-0.0023517650552093983,-0.004145490471273661,0.005344720557332039
1758440523908725200,3.446725341796875,-0.002116075251251459,-0.007596680894494057,-0.0075636208057403564
1758440523918696200,3.4566962890625,-0.003808409906923771,-0.017071614041924477,-0.012815386056900024
1758440523928666000,3.466666015625,-0.0025716377422213554,-0.022429361939430237,-0.01537468284368515
1758440523938637300,3.47663720703125,-0.006302172318100929,-0.024766456335783005,-0.016871431842446327
1758440523948607200,3.486607177734375,-0.006418285891413689,-0.021230312064290047,-0.016561172902584076
1758440523958578200,3.496578125,-0.004344520624727011,-0.011327995918691158,-0.01406511478126049
1758440523968548000,3.506548095703125,-0.0038811308331787586,-0.002822925103828311,-0.011315135285258293
1758440523978519300,3.516519287109375,-0.0025229142047464848,0.0049772788770496845,-0.006471334025263786
1758440523988489200,3.5264892578125,0.0015655707102268934,0.012214419431984425,-0.0017554080113768578
1758440523998459100,3.536459228515625,0.001208283007144928,0.005316632799804211,0.003177274949848652
1758440524008430300,3.546430419921875,0.0012311863247305155,0.0010252152569592,0.004121365491300821
1758440524018400300,3.556400146484375,0.004765505902469158,-0.0013639878015965223,-0.00048785749822854996
1758440524028371200,3.56637109375,0.0037841310258954763,-0.00004252721555531025,0.0011356053873896599
1758440524038341000,3.576341064453125,0.006862984038889408,0.0062630679458379745,0.005701287649571896
1758440524048312000,3.58631201171875,0.004247227218002081,0.013216315768659115,0.006863757036626339
1758440524058282200,3.5962822265625,-0.0005075447261333466,0.008876544423401356,0.007741928566247225
1758440524068253000,3.6062529296875,-0.0006899712607264519,0.0011991830542683601,0.00992119312286377
1758440524078223000,3.61622314453125,-0.003628227859735489,0.002359401434659958,0.015202859416604042
1758440524088194000,3.626194091796875,-0.0010414994321763515,0.01446559838950634,0.009494107216596603
1758440524098164000,3.6361640625,0.0013578778598457575,0.01416789460927248,-0.0009494572877883911
1758440524108134100,3.646134033203125,0.0018606828525662422,-0.0038196290843188763,-0.014281507581472397
1758440524118105000,3.65610498046875,-0.00120572280138731,-0.02425025962293148,-0.023278631269931793
1758440524128075000,3.666074951171875,-0.007106222677975893,-0.029131833463907242,-0.025812363252043724
1758440524138046200,3.676046142578125,-0.0068144588731229305,-0.016139881685376167,-0.015632275491952896
1758440524148016000,3.68601611328125,0.0013595812488347292,0.006219484843313694,-0.0010091252624988556
1758440524157987000,3.695987060546875,0.009955239482223988,0.028113186359405518,0.017097026109695435
1758440524167957000,3.70595703125,0.00885641947388649,0.03795330226421356,0.028105201199650764
1758440524177928200,3.71592822265625,0.0051831211894750595,0.0245064664632082,0.02290990762412548
1758440524187898000,3.725898193359375,0.002346055582165718,-0.008543894626200199,0.00855839904397726
1758440524197869000,3.735869140625,-0.0026512579061090946,-0.030413374304771423,-0.011218734085559845
1758440524207839200,3.745839111328125,-0.003969255834817886,-0.03623717278242111,-0.0306885726749897
1758440524217809200,3.75580908203125,-0.0016448269598186016,-0.03008384257555008,-0.038796354085206985
1758440524227780000,3.765780029296875,0.0039675189182162285,-0.012854790315032005,-0.03334060311317444
1758440524237750000,3.77575,0.00991896167397499,0.005137084051966667,-0.017259422689676285
1758440524247721200,3.78572119140625,0.013293985277414322,0.020452924072742462,0.00047030625864863396
1758440524257691100,3.795691162109375,0.013464062474668026,0.013776191510260105,0.00788198970258236
1758440524267662000,3.805662109375,0.013246482238173485,0.0026580267585814,0.007018060423433781
1758440524277632300,3.81563232421875,0.008958522230386734,-0.00505615770816803,-0.0009227301925420761
1758440524287603200,3.825603271484375,0.004966177511960268,-0.008045023307204247,-0.01148003339767456
1758440524297573000,3.835572998046875,-0.003698560409247875,-0.0015822448767721653,-0.01686239056289196
1758440524307544300,3.84554443359375,-0.009550856426358223,0.007353459484875202,-0.0155031131580472
1758440524317514200,3.85551416015625,-0.01341697946190834,0.010052623227238655,-0.006242102012038231
1758440524327484200,3.865484130859375,-0.009420108050107956,0.014878538437187672,0.0022312779910862446
1758440524337455400,3.875455322265625,-0.004659953527152538,0.005779142491519451,0.0012152339331805706
1758440524347425300,3.88542529296875,-0.0038191936910152435,-0.017215121537446976,-0.0028543423395603895
1758440524357396200,3.895396240234375,-0.00195260439068079,-0.033761702477931976,-0.005055130925029516
1758440524367366100,3.9053662109375,0.0007238725665956736,-0.0189188402146101,-0.003538993187248707
1758440524377337300,3.91533740234375,0.0015708187129348516,0.01146724447607994,0.005346710328012705
1758440524391046100,3.929046142578125,0.008448432199656963,0.03553716093301773,0.0211176835000515
1758440524401017000,3.93901708984375,0.00928863137960434,0.036572955548763275,0.02363278716802597
1758440524410987300,3.9489873046875,0.007545859552919865,0.024005236104130745,0.01635703071951866
1758440524420958000,3.9589580078125,0.004086248576641083,0.0030781072564423084,0.0018778983503580093
1758440524430928100,3.96892822265625,-0.0017490037716925144,-0.01709054410457611,-0.015241432934999466
1758440524440899000,3.978899169921875,-0.006847089156508446,-0.016809508204460144,-0.027984347194433212
1758440524450869000,3.988868896484375,-0.008440458215773106,-0.011222995817661285,-0.03026295080780983
1758440524460839200,3.998839111328125,-0.007006485480815172,-0.006907983683049679,-0.020752068608999252
1758440524470810000,4.00881005859375,-0.0013019940815865993,0.00044633541256189346,-0.00951832253485918
1758440524480780000,4.018780029296875,0.006024099886417389,0.0040033250115811825,-0.0022971173748373985
1758440524490751000,4.0287509765625,0.007802026346325874,0.00433568749576807,0.004570109769701958
1758440524500721000,4.038720947265625,0.010724201798439026,0.009825924411416054,0.004611095413565636
1758440524510692000,4.048692138671875,0.006939850281924009,0.013464068062603474,-0.0028588050045073032
1758440524520662000,4.058662109375,0.002836042083799839,0.0050373803824186325,-0.008215328678488731
1758440524530633000,4.068633056640625,0.0018314975313842297,0.000623190775513649,-0.013520346023142338
1758440524540603000,4.078602783203125,0.0011551587376743555,-0.001980321481823921,-0.015477035194635391
1758440524550574000,4.088573974609375,-0.002823337446898222,-0.010133055970072746,-0.011698275804519653
1758440524560544000,4.0985439453125,-0.005914596375077963,-0.011110861785709858,-0.009671277366578579
1758440524570514000,4.108513916015625,-0.004494066815823317,-0.004215937573462725,-0.010621760040521622
1758440524580485000,4.118485107421875,-0.005764506291598082,-0.0003997655585408211,-0.005701859015971422
1758440524590455000,4.128455078125,-0.004927740897983313,0.0008447295986115932,-0.0045263394713401794
1758440524600426000,4.138426025390625,-0.006997016724199057,0.008128209039568901,-0.0020107177551835775
1758440524610396200,4.148396240234375,-0.010067641735076904,0.007508491165935993,0.0037315902300179005
1758440524620367000,4.1583671875,-0.004972076043486595,0.002279483014717698,0.002693022135645151
1758440524630337000,4.1683369140625,0.0009766267612576485,-0.0026148746255785227,0.0010296115651726723
1758440524640308200,4.17830810546875,0.0026730564422905445,-0.009097613394260406,0.0014633974060416222
1758440524650278100,4.188278076171875,0.005309852305799723,-0.004092468414455652,0.0005374164320528507
1758440524660249000,4.1982490234375,0.004857485182583332,0.008574052713811398,0.0021235295571386814
1758440524670219000,4.208218994140625,0.0017479783855378628,0.008207335136830807,0.005967004224658012
1758440524680190200,4.218190185546875,-0.0010472647845745087,0.007772389333695173,0.002092238049954176
1758440524690160000,4.22816015625,-0.0030068187043070793,-0.0005377386696636677,-0.00858144462108612
1758440524700130000,4.238130126953125,-0.0030110510997474194,-0.008766135200858116,-0.01438150368630886
1758440524710100000,4.248099853515625,0.00019140029326081276,-0.0285334475338459,-0.009765180759131908
1758440524720071200,4.2580712890625,0.007704701740294695,-0.017061494290828705,-0.009786572307348251
1758440524730041000,4.268041015625,0.012520229443907738,0.008448658511042595,-0.00830771867185831
1758440524740012000,4.278011962890625,0.00123174162581563,0.0196406077593565,0.004438815638422966
1758440524749982200,4.287982177734375,0.003447757801041007,0.025384780019521713,0.016213450580835342
1758440524759953000,4.297952880859375,0.0065370164811611176,0.024736156687140465,0.017801137641072273
1758440524769923000,4.307923095703125,0.00004822481423616409,0.017578111961483955,0.011035377159714699
1758440524779894000,4.31789404296875,-0.0042611779645085335,0.00858497153967619,-0.0061136274598538876
1758440524789864000,4.327864013671875,-0.0038260179571807384,-0.0031348017510026693,-0.021075265482068062
1758440524799835000,4.3378349609375,-0.0008740117773413658,-0.012588290497660637,-0.0214904323220253
1758440524809804800,4.3478046875,0.00007327436469495296,-0.02109868824481964,-0.01292384136468172
1758440524819776000,4.35777587890625,-0.000022316351532936096,-0.019142040982842445,0.0013833651319146156
1758440524829746000,4.367745849609375,0.0019388352520763874,-0.00019018817692995071,0.016457654535770416
1758440524839715800,4.3777158203125,0.0023181610740721226,0.0179425198584795,0.020899880677461624
1758440524849687000,4.38768701171875,-0.0008773659355938435,0.012038026005029678,0.015325086191296577
1758440524859657000,4.397656982421875,-0.0022677667438983917,-0.012172657065093517,-0.0004582749679684639
1758440524869628000,4.4076279296875,-0.005773285869508982,-0.027423247694969177,-0.01834459789097309
1758440524879598000,4.41759814453125,-0.010470999404788017,-0.02697424590587616,-0.027369314804673195
1758440524889569000,4.427569091796875,-0.008115433156490326,-0.015069117769598961,-0.020527387037873268
1758440524899539000,4.4375390625,0.0025970011483877897,0.008033839985728264,-0.01278342492878437
1758440524909510100,4.44751025390625,0.0068639181554317474,0.023278573527932167,-0.004424028564244509
1758440524919480000,4.45747998046875,0.01057266816496849,0.01542575377970934,0.0015071812085807323
1758440524929451000,4.467450927734375,0.010711418464779854,-0.0026808122638612986,0.005100850947201252
1758440524939421000,4.4774208984375,0.007864085957407951,-0.020274972543120384,0.004303614608943462
1758440524949392100,4.48739208984375,0.002373180352151394,-0.023283278569579124,0.0058325352147221565
1758440524959362000,4.497362060546875,-0.002643719781190157,-0.008820900693535805,0.007141831796616316
1758440524969332000,4.50733203125,-0.0032301475293934345,0.007274979259818792,0.012991731986403465
1758440524979303200,4.51730322265625,-0.0028313081711530685,0.020927485078573227,0.017789531499147415
1758440524989273000,4.527273193359375,-0.003763947170227766,0.03224405273795128,0.009684733115136623
1758440524999244000,4.537244140625,-0.009688828140497208,0.02146332710981369,-0.006752452813088894
1758440525009214000,4.5472138671875,-0.01662370003759861,-0.00892680324614048,-0.019415516406297684
1758440525019185200,4.55718505859375,-0.022694112733006477,-0.029481418430805206,-0.02504335343837738
1758440525029155000,4.567155029296875,-0.02006557211279869,-0.024897053837776184,-0.021060330793261528
1758440525039126000,4.5771259765625,-0.014877093955874443,-0.0015579088358208537,-0.00891878828406334
1758440525049096200,4.58709619140625,-0.007896150462329388,0.01629272848367691,0.011739617213606834
1758440525059067100,4.597067138671875,0.0005958806723356247,0.025991374626755714,0.026661181822419167
1758440525069037000,4.607037109375,0.006693188101053238,0.022790787741541862,0.027724051848053932
1758440525079008000,4.617008056640625,0.006726793013513088,0.016762055456638336,0.0184810608625412
1758440525088978200,4.626978271484375,0.004333676770329475,-0.0008805878460407257,0.006422800477594137
1758440525098948000,4.636947998046875,-0.0007919906638562679,-0.011885554529726505,-0.0038315870333462954
1758440525108919000,4.6469189453125,-0.0065215155482292175,-0.014704510569572449,-0.007019657175987959
1758440525118889200,4.65688916015625,-0.00838334672152996,-0.016735989600419998,-0.003229623194783926
1758440525128860000,4.66685986328125,-0.011230265721678734,-0.015568194910883904,0.009498688392341137
1758440525138829800,4.676829833984375,-0.008574951440095901,-0.0014886814169585705,0.024011164903640747
1758440525148801000,4.686801025390625,-0.006390627007931471,0.010096069425344467,0.029583297669887543
1758440525158771000,4.69677099609375,-0.005537630990147591,0.005148694850504398,0.021448224782943726
1758440525168742000,4.706741943359375,-0.004283016547560692,-0.011706451885402203,0.0035142325796186924
1758440525178712000,4.716712158203125,-0.0018432755023241043,-0.023560356348752975,-0.009342487901449203
1758440525188683000,4.72668310546875,0.0025061992928385735,-0.032041992992162704,-0.01936795748770237
1758440525198653000,4.73665283203125,0.006270430516451597,-0.023045551031827927,-0.016600288450717926
1758440525208624000,4.7466240234375,0.005998255684971809,-0.005757375154644251,-0.005464281886816025
1758440525218594000,4.756593994140625,0.008759407326579094,0.011233572848141193,0.008877726271748543
1758440525228564000,4.76656396484375,0.010014554485678673,0.01726323552429676,0.016405949369072914
1758440525238535000,4.776534912109375,0.0057665640488266945,0.007560632191598415,0.014117985963821411
1758440525248505000,4.786505126953125,0.0017457236535847187,-0.0035340969916433096,0.00903188157826662
1758440525258476000,4.79647607421875,-0.0034475792199373245,-0.005552347749471664,-0.0009105645585805178
1758440525268446000,4.806446044921875,-0.007446581963449717,-0.0052548726089298725,-0.007816674187779427
1758440525278417200,4.816417236328125,-0.007908917963504791,-0.013933796435594559,-0.01043096836656332
1758440525288387000,4.826386962890625,-0.008354730904102325,-0.019156521186232567,-0.009089267812669277
1758440525298358000,4.83635791015625,-0.00707800080999732,-0.0177975632250309,-0.006914927624166012
1758440525308328200,4.846328125,-0.0016656583175063133,-0.015964774414896965,-0.0006722116377204657
1758440525318299100,4.856299072265625,0.004543753806501627,-0.013460623100399971,0.002267470583319664
1758440525328269000,4.86626904296875,0.005040965974330902,-0.013005755841732025,0.00585581362247467
1758440525338240300,4.876240234375,0.006380291655659676,-0.008225219324231148,0.0024395142681896687
1758440525348210200,4.886210205078125,0.0048215435817837715,0.004821606446057558,-0.008579581044614315
1758440525358180000,4.89618017578125,0.0005116264801472425,0.0018552911933511496,-0.013850665651261806
1758440525368151000,4.906151123046875,0.0016623784322291613,-0.00785725750029087,-0.012327336706221104
1758440525378121200,4.916121337890625,0.0024362774565815926,-0.007372848689556122,-0.011178625747561455
1758440525388092200,4.926092041015625,0.002648531459271908,0.003667285433039069,-0.0031065852381289005
1758440525398062000,4.93606201171875,0.0026337490417063236,0.018637942150235176,0.0035028262063860893
1758440525408033000,4.946032958984375,0.0014012381434440613,0.024036437273025513,0.0021781697869300842
1758440525418003200,4.956003173828125,-0.004369284026324749,0.010190949775278568,-0.004860654007643461
1758440525427974000,4.965973876953125,-0.007307017222046852,-0.0074996305629611015,-0.013124442659318447
1758440525437943800,4.97594384765625,-0.006431762594729662,-0.018124470487236977,-0.018388913944363594
1758440525447915000,4.9859150390625,-0.004559560213238001,-0.021248091012239456,-0.01606983318924904
1758440525457885000,4.995885009765625,-0.004280885681509972,-0.017943842336535454,-0.011118772439658642
1758440525467856000,5.00585595703125,0.00013037421740591526,-0.00762888602912426,-0.005702701862901449
1758440525477826000,5.015825927734375,0.0004218742251396179,-0.0007581404643133283,0.005585306324064732
1758440525487797500,5.025797607421875,0.002466116566210985,0.0005412157624959946,0.017916008830070496
1758440525497767400,5.035767333984375,0.002175284083932638,0.011309687048196793,0.03038395196199417
1758440525507737300,5.0457373046875,0.0021369345486164093,0.02777894213795662,0.038836292922496796
1758440525517708300,5.055708251953125,0.001369798555970192,0.03346534073352814,0.03304455429315567
1758440525527678500,5.065678466796875,-0.0035453313030302525,0.02041771449148655,0.019018488004803658
1758440525537649400,5.0756494140625,-0.007459766697138548,-0.007393958978354931,0.004241831135004759
1758440525547619300,5.085619384765625,-0.008491741493344307,-0.02017819881439209,-0.010510217398405075
1758440525557590500,5.095590576171875,-0.007763760630041361,-0.020892882719635963,-0.018771009519696236
1758440525567560400,5.105560546875,-0.005309124942868948,-0.02027476206421852,-0.012717644684016705
1758440525577531400,5.115531494140625,0.0018269354477524757,-0.01138404943048954,-0.002869964810088277
1758440525587501600,5.12550146484375,0.00927899219095707,0.0037552218418568373,0.0047136531211435795
1758440525597472500,5.135472412109375,0.012449102476239204,0.006226956378668547,0.009131506085395813
1758440525607442400,5.1454423828125,0.012434190139174461,0.0010732074733823538,0.010810628533363342
1758440525617413600,5.15541357421875,0.010816301219165325,0.0010379627346992493,0.006298476830124855
1758440525627383600,5.165383544921875,0.008183233439922333,0.0073294141329824924,0.0018288935534656048
1758440525637353500,5.175353515625,0.005018441937863827,0.013512742705643177,-0.002528916811570525
1758440525647324400,5.185324462890625,0.0004481915384531021,0.014419016428291798,-0.010996703058481216
1758440525657294600,5.195294677734375,-0.007151877507567406,0.009065411984920502,-0.018025614321231842
1758440525667265500,5.205265625,-0.01147578563541174,-0.009763137437403202,-0.02199558913707733
1758440525677235500,5.2152353515625,-0.012328831478953362,-0.020556509494781494,-0.0190057922154665
1758440525687206400,5.225206298828125,-0.01153920404613018,-0.014085560105741024,-0.010600589215755463
1758440525697176600,5.235176513671875,-0.0075287348590791225,0.0024268561974167824,0.0017934096977114677
1758440525707147300,5.245147216796875,-0.003142775036394596,0.016751732677221298,0.016725221648812294
1758440525717117200,5.2551171875,0.006687477696686983,0.023950114846229553,0.0239979587495327
1758440525727088400,5.26508837890625,0.007302135229110718,0.02128642052412033,0.021316688507795334
1758440525737058300,5.275058349609375,0.0070713600143790245,0.011230874806642532,0.013241825625300407
1758440525747029200,5.285029296875,0.010543323121964931,0.005187629256397486,0.003580409102141857
1758440525756999400,5.29499951171875,0.012261457741260529,0.003207462141290307,-0.0029361480847001076
1758440525766970400,5.304970458984375,0.00907684862613678,-0.0006759591633453965,-0.0012905809562653303
1758440525776940300,5.314940185546875,0.0030049521010369062,0.000027118250727653503,0.007813351228833199
1758440525786910200,5.32491015625,-0.000237978994846344,0.00797665398567915,0.01871340349316597
1758440525796881400,5.33488134765625,-0.007299338933080435,0.011379390954971313,0.027288971468806267
1758440525806851300,5.344851318359375,-0.008986985310912132,0.007714347913861275,0.027497494593262672
1758440525816822300,5.354822265625,-0.008601997047662735,0.00019578333012759686,0.01967191882431507
1758440525826792400,5.36479248046875,-0.0077511160634458065,-0.012179126963019371,0.005808036308735609
1758440525836763400,5.374763427734375,-0.007760437671095133,-0.01992972567677498,-0.0022959632333368063
1758440525846733300,5.3847333984375,-0.0064453682862222195,-0.01830892451107502,-0.007035058457404375
1758440525856704500,5.39470458984375,-0.0037301648408174515,-0.005432204809039831,-0.004463007673621178
1758440525866674400,5.40467431640625,0.0007423479110002518,-0.00031946832314133644,0.002876131795346737
1758440525876645400,5.414645263671875,0.00729732122272253,0.004204212687909603,0.0043203867971897125
1758440525886615600,5.424615478515625,0.010432660579681396,-0.0013447499368339777,0.00565942469984293
1758440525896586500,5.43458642578125,0.009104937314987183,-0.006047465838491917,-0.00037856376729905605
1758440525906556400,5.444556396484375,0.009008530527353287,-0.010344475507736206,-0.007191728800535202
1758440525916527600,5.454527587890625,0.0033432189375162125,-0.01196516864001751,-0.008610517717897892
1758440525926497500,5.46449755859375,-0.0007513910531997681,-0.007278004661202431,-0.0021158671006560326
1758440525936467500,5.474467529296875,-0.0020353407599031925,0.0035828454419970512,0.008531434461474419
1758440525946438400,5.4844384765625,-0.0015477160923182964,0.013092461042106152,0.01901363581418991
1758440525956408600,5.49440869140625,0.001370459794998169,0.0158271174877882,0.024477099999785423
1758440525966379500,5.504379638671875,0.0017060181125998497,0.01308485958725214,0.01621144637465477
1758440525976349400,5.514349365234375,0.002410690300166607,0.004673532210290432,0.005477576982229948
1758440525986320400,5.5243203125,0.00009081070311367512,-0.007868091575801373,-0.008895769715309143
1758440525996290600,5.53429052734375,-0.0024351803585886955,-0.020808301866054535,-0.02108190208673477
1758440526006261200,5.54426123046875,-0.005280768033117056,-0.025182276964187622,-0.022357024252414703
1758440526016231400,5.5542314453125,-0.0003913319669663906,-0.01917993649840355,-0.013570655137300491
1758440526026202400,5.564202392578125,0.0008473042398691177,0.0013953782618045807,0.002346792258322239
1758440526036172300,5.57417236328125,0.006031389348208904,0.022255154326558113,0.018659135326743126
1758440526046143200,5.584143310546875,0.007227414753288031,0.03486788645386696,0.028406571596860886
1758440526056113400,5.594113525390625,0.009818946942687035,0.03394371271133423,0.0237235389649868
1758440526066084400,5.60408447265625,0.005134979262948036,0.02174084447324276,0.006910204887390137
1758440526076054300,5.61405419921875,0.002513768384233117,-0.003239499405026436,-0.009985620155930519
1758440526086025500,5.624025390625,0.0006546156946569681,-0.018989434465765953,-0.02028060145676136
1758440526095995400,5.633995361328125,0.0009361188858747482,-0.020217007026076317,-0.020274387672543526
1758440526105965300,5.64396533203125,-0.004108973313122988,-0.008320401422679424,-0.007624904625117779
1758440526115936500,5.6539365234375,-0.002332662232220173,0.01467803493142128,0.010624980553984642
1758440526125906400,5.663906494140625,0.002420014701783657,0.020903440192341805,0.02378579042851925
1758440526135877400,5.67387744140625,0.004867083393037319,0.011870993301272392,0.018038714304566383
1758440526145847300,5.683847412109375,0.00417785719037056,-0.006085636094212532,0.009617531672120094
1758440526155818500,5.693818603515625,0.001771923154592514,-0.021777424961328506,0.0006765807047486305
1758440526165788400,5.703788330078125,0.001931979088112712,-0.02571544423699379,0.0004970836453139782
1758440526175759400,5.71375927734375,0.0012210700660943985,-0.013527823612093925,0.0024188519455492496
1758440526185729500,5.7237294921875,-0.0015933583490550518,0.0021909521892666817,0.004548848606646061
1758440526195700500,5.733700439453125,-0.0020777913741767406,0.007916145026683807,0.009278576821088791
1758440526205670400,5.74367041015625,0.0022029737010598183,0.005678290501236916,0.005764269735664129
1758440526215641600,5.7536416015625,-0.000603748019784689,0.0004738518036901951,-0.0035407778341323137
1758440526225611500,5.763611572265625,-0.003561454825103283,-0.000873707584105432,-0.01487838663160801
1758440526235582500,5.77358251953125,-0.007046990096569061,0.0016607693396508694,-0.02206425555050373
1758440526245552400,5.783552490234375,-0.0050557442009449005,0.006346601527184248,-0.014215655624866486
1758440526255522600,5.7935224609375,-0.00021757977083325386,0.011059597134590149,-0.001450324896723032
1758440526265493500,5.803493408203125,0.009490441530942917,0.011863339692354202,0.014973921701312065
1758440526275463400,5.81346337890625,0.014551501721143723,0.006247851997613907,0.024248242378234863
1758440526285434400,5.823434326171875,0.02091725543141365,0.0008285848889499903,0.02855856902897358
1758440526295404500,5.833404541015625,0.020863743498921394,0.0022409481462091208,0.02666662260890007
1758440526305375200,5.843375244140625,0.015340879559516907,0.005596531555056572,0.023444997146725655
1758440526315345400,5.853345458984375,0.010206571780145168,0.010570251382887363,0.019787942990660667
1758440526325316400,5.86331640625,0.0037268344312906265,0.00901789404451847,0.015698127448558807
1758440526335286300,5.873286376953125,-0.0031725135631859303,0.00068525574170053,0.006996873300522566
1758440526345257500,5.883257568359375,-0.0073552741669118404,-0.01540396548807621,0.002768839243799448
1758440526355227400,5.893227294921875,-0.010525611229240894,-0.02317320741713047,-0.0024759082589298487
1758440526365198300,5.9031982421875,-0.012579440139234066,-0.012680353596806526,-0.0036357147619128227
1758440526375168300,5.913168212890625,-0.011415107175707817,0.007033164147287607,-0.003167531220242381
1758440526385139500,5.923139404296875,-0.010182595811784267,0.0267070010304451,0.001207243651151657
1758440526395109400,5.933109375,-0.005990109872072935,0.01976078376173973,0.0048630330711603165
1758440526405080300,5.943080322265625,-0.0019032224081456661,-0.001794841606169939,0.0013370080851018429
1758440526415050500,5.953050537109375,0.0010780512820929289,-0.010044551454484463,-0.0021719960495829582
1758440526425020400,5.9630205078125,0.0050211274065077305,-0.0014617156703025103,-0.001263858051970601
1758440526434991400,5.972991455078125,0.005313253961503506,0.005629786290228367,0.005904515273869038
1758440526444961300,5.982961181640625,0.007682135794311762,0.00417570024728775,0.015031435526907444
1758440526454932500,5.992932373046875,0.008892156183719635,0.011992928571999073,0.02048633061349392
1758440526464902400,6.00290234375,0.0048774415627121925,0.022278057411313057,0.01640663482248783
1758440526474873300,6.012873291015625,-0.0020395959727466106,0.019428260624408722,0.003028371836990118
1758440526484843300,6.02284326171875,-0.008298024535179138,0.0011073118075728416,-0.010406211018562317
1758440526494814200,6.032814208984375,-0.009326946921646595,-0.01724424585700035,-0.024875329807400703
1758440526504784100,6.0427841796875,-0.008830267004668713,-0.018914844840765,-0.03140779584646225
1758440526514755300,6.05275537109375,-0.007119572721421719,-0.016733933240175247,-0.029889851808547974
1758440526524725200,6.062725341796875,-0.004187432117760181,-0.0098898746073246,-0.019587678834795952
1758440526534696200,6.0726962890625,0.0010231768246740103,-0.005677251145243645,-0.0042624943889677525
1758440526544666000,6.082666015625,0.006874674465507269,0.002529013203456998,0.008300701156258583
1758440526554637300,6.09263720703125,0.009987376630306244,0.0073458729311823845,0.016562093049287796
1758440526564607200,6.102607177734375,0.009141024202108383,0.0017865241970866919,0.02037361077964306
1758440526574578000,6.112577880859375,0.009072437882423401,-0.008025873452425003,0.017777396366000175
1758440526584548400,6.12254833984375,0.005615920759737492,-0.015665950253605843,0.012503005564212799
1758440526594518300,6.132518310546875,0.005197159014642239,-0.023253634572029114,0.0058699059300124645
1758440526604489200,6.1424892578125,0.00042370916344225407,-0.026706689968705177,0.000008821021765470505
1758440526614459400,6.15245947265625,-0.0023764860816299915,-0.02312266081571579,-0.004727285820990801
1758440526624430000,6.16243017578125,-0.0026095127686858177,-0.013636746443808079,-0.006863673683255911
1758440526634400300,6.172400146484375,-0.0031537250615656376,-0.01295593660324812,-0.0024102660827338696
1758440526644371200,6.18237109375,-0.0023073721677064896,-0.005506542511284351,0.0032550767064094543
1758440526654341000,6.192341064453125,-0.0018711262382566929,-0.001297788810916245,0.006214388646185398
1758440526664312000,6.20231201171875,0.002531877951696515,-0.002445078454911709,0.004469485953450203
1758440526674282000,6.212281982421875,0.0015853578224778175,-0.005112943239510059,-0.0032104668207466602
1758440526684253200,6.222253173828125,0.0009115780703723431,-0.008878919295966625,-0.017008038237690926
1758440526694223000,6.23222314453125,0.0014174389652907848,-0.01124558039009571,-0.023134492337703705
1758440526704194000,6.242194091796875,0.0038797976449131966,-0.007910237647593021,-0.01583130471408367
1758440526714164200,6.252164306640625,0.009118633344769478,0.007366684731096029,-0.0022489414550364017
1758440526724135200,6.26213525390625,0.011827601119875908,0.027016818523406982,0.012603508308529854
1758440526734105000,6.27210498046875,0.009459000080823898,0.026324748992919922,0.025357622653245926
1758440526744076300,6.282076171875,0.007642457261681557,0.014766630716621876,0.023411119356751442
1758440526754046200,6.292046142578125,0.003316842718049884,-0.0004908868577331305,0.013490654528141022
1758440526764017200,6.30201708984375,-0.0010558012872934341,-0.011221827939152718,-0.0005271590780466795
1758440526773987000,6.311987060546875,-0.0017687492072582245,-0.016592252999544144,-0.012253599241375923
1758440526783957200,6.321957275390625,-0.002508575562387705,-0.01597306691110134,-0.01638922095298767
1758440526793928200,6.33192822265625,-0.00021668197587132454,-0.005794496275484562,-0.010081636719405651
1758440526803898000,6.341898193359375,0.0018717690836638212,0.0020887269638478756,-0.003389379009604454
1758440526813869300,6.351869384765625,0.004901278764009476,0.006025618873536587,-0.0008908403106033802
1758440526823839200,6.361839111328125,0.0022205407731235027,0.0028007973451167345,-0.003047201782464981
1758440526833810200,6.37181005859375,-0.0037709171883761883,-0.012418350204825401,-0.0025317759718745947
1758440526843780000,6.381780029296875,-0.002559178974479437,-0.018840298056602478,-0.0008473265916109085
1758440526853751300,6.391751220703125,-0.0004153400659561157,-0.008182734251022339,0.0034746238961815834
1758440526863721200,6.40172119140625,0.0019309050403535366,0.01434893999248743,0.010130396112799644
1758440526873692200,6.411692138671875,0.003169165225699544,0.026003729552030563,0.015422442927956581
1758440526883662300,6.421662353515625,0.004834440071135759,0.018140215426683426,0.018895737826824188
1758440526893633000,6.431633056640625,0.0004123619291931391,-0.0024912371300160885,0.009622655808925629
1758440526903603200,6.441603271484375,-0.0038122101686894894,-0.016388144344091415,-0.004726456478238106
1758440526913574100,6.45157421875,-0.006249123252928257,-0.025651898235082626,-0.017865747213363647
1758440526923544000,6.4615439453125,-0.0034357598051428795,-0.02670145034790039,-0.028365526348352432
1758440526933515000,6.471514892578125,-0.0022812667302787304,-0.02845512516796589,-0.027375444769859314
1758440526943485200,6.481485107421875,0.006331662647426128,-0.02937045320868492,-0.017648248001933098
1758440526953456000,6.4914560546875,0.013297811150550842,-0.017021961510181427,-0.005775019992142916
1758440526963426000,6.501426025390625,0.01340273953974247,-0.006523514166474342,0.00539081497117877
1758440526973397200,6.511397216796875,0.010051553137600422,0.0035342155024409294,0.011776033788919449
1758440526983367200,6.5213671875,0.007940731942653656,0.013978865928947926,0.01389271393418312
1758440526993337000,6.531337158203125,0.0040284255519509315,0.020632756873965263,0.01020359992980957
1758440527003308000,6.54130810546875,-0.0028153657913208008,0.01886761374771595,0.010893624275922775
1758440527013278200,6.5512783203125,-0.00516816321760416,0.013446078635752201,0.003753243014216423
1758440527023249200,6.561249267578125,-0.00673117209225893,0.0026996908709406853,-0.0034958813339471817
1758440527033219000,6.571218994140625,-0.007055393885821104,-0.006145274732261896,-0.011578533798456192
1758440527043190300,6.581190185546875,-0.00903012789785862,-0.008826012723147869,-0.01571548916399479
1758440527053160200,6.59116015625,-0.009944399818778038,-0.003458889201283455,-0.011485463939607143
1758440527063131100,6.601131103515625,-0.005748056340962648,0.0003140110056847334,0.0004114089533686638
1758440527073101000,6.61110107421875,-0.003420462366193533,0.006777558475732803,0.008134166710078716
1758440527083072300,6.621072265625,-0.0011354698799550533,0.005561825819313526,0.01516810804605484
1758440527093042200,6.631042236328125,0.00232052244246006,0.0008466432336717844,0.020470604300498962
1758440527103013400,6.641013427734375,0.006194889545440674,0.005460037384182215,0.017530741170048714
1758440527112983300,6.6509833984375,0.007662957534193993,0.019508248195052147,0.010378578677773476
1758440527122954200,6.660954345703125,0.008195057511329651,0.023540273308753967,0.0048085772432386875
1758440527132924200,6.670924072265625,0.005548268090933561,0.017173543572425842,-0.0005546144675463438
1758440527142895000,6.68089501953125,0.002235562074929476,0.005161356180906296,-0.013069340959191322
1758440527152865300,6.690865234375,-0.008551709353923798,-0.011136230081319809,-0.022517243400216103
1758440527162836000,6.7008359375,-0.015886854380369186,-0.015582909807562828,-0.021793927997350693
1758440527172806100,6.71080615234375,-0.01488364115357399,-0.005095381289720535,-0.013402573764324188
1758440527182776300,6.7207763671875,-0.009987952187657356,0.013295876793563366,0.00039313267916440964
1758440527192747000,6.7307470703125,-0.004394780844449997,0.028423961251974106,0.013800550252199173
1758440527202717200,6.74071728515625,0.006042147055268288,0.0278543122112751,0.021803349256515503
1758440527212688100,6.750688232421875,0.012526566162705421,0.018623527139425278,0.023069504648447037
1758440527222658000,6.760657958984375,0.01333616767078638,0.0024956888519227505,0.019035080447793007
1758440527232629000,6.77062890625,0.008173121139407158,-0.016129430383443832,0.0144377201795578
1758440527242599200,6.78059912109375,0.0042191254906356335,-0.027454521507024765,0.012065110728144646
1758440527252570000,6.790570068359375,-0.0012401347048580647,-0.0263996385037899,0.015127312391996384
1758440527262540000,6.8005400390625,-0.001145059708505869,-0.018246104940772057,0.016176598146557808
1758440527272511200,6.81051123046875,-0.001203632913529873,-0.00783006101846695,0.014159273356199265
1758440527282481200,6.820481201171875,-0.0005708658136427402,-0.0004895902238786221,0.01545383594930172
1758440527292452000,6.8304521484375,0.002373794326558709,0.00467940978705883,0.010009316727519035
1758440527302422000,6.840422119140625,-0.001711761113256216,0.0062024714425206184,0.0023077204823493958
1758440527312393200,6.850393310546875,-0.0007198764942586422,0.008901871740818024,-0.005309617146849632
1758440527322363100,6.860363037109375,-0.0020900731906294823,0.005350280087441206,-0.010676952078938484
1758440527332334000,6.870333984375,-0.004737126175314188,-0.0007513940799981356,-0.01365523599088192
1758440527342304300,6.88030419921875,-0.004694249015301466,-0.0021463576704263687,-0.01306055299937725
1758440527352275200,6.890275146484375,-0.002475558314472437,-0.004514425527304411,-0.011823059059679508
1758440527362245000,6.9002451171875,-0.0030611874535679817,-0.0010286140022799373,-0.008660821244120598
1758440527372216300,6.91021630859375,-0.000971025787293911,-0.00715627521276474,-0.002504216507077217
1758440527382186200,6.920186279296875,0.00112541439011693,-0.006357859820127487,0.0034599327482283115
1758440527392157200,6.9301572265625,0.0035151916090399027,-0.0026007189881056547,0.005429386626929045
1758440527402127400,6.94012744140625,0.0006999638862907887,0.004018301144242287,0.011816445738077164
1758440527412097300,6.95009716796875,-0.00041829515248537064,0.006104425061494112,0.01661098375916481
1758440527422068200,6.960068115234375,-0.0033070258796215057,0.004135816358029842,0.020601198077201843
1758440527432038100,6.9700380859375,-0.007102279458194971,0.006990148685872555,0.021888909861445427
1758440527442009000,6.980009033203125,-0.005784281063824892,0.01807555742561817,0.019599655643105507
1758440527451979300,6.989979248046875,-0.002595813013613224,0.027758242562413216,0.008116347715258598
1758440527461950000,6.999949951171875,-0.004305828362703323,0.025483103469014168,-0.0035576187074184418
1758440527471920000,7.009920166015625,-0.005098788999021053,0.005256291013211012,-0.014220455661416054
1758440527481891300,7.019891357421875,-0.002961069345474243,-0.0203835591673851,-0.02346668392419815
1758440527491861200,7.029861328125,-0.004004229791462421,-0.03311027213931084,-0.025702407583594322
1758440527501832400,7.03983251953125,-0.0017016604542732239,-0.02350584790110588,-0.0179803054779768
1758440527511802400,7.04980224609375,0.0004040985368192196,-0.0042800260707736015,-0.0017585072200745344
1758440527521773300,7.059773193359375,0.0030097353737801313,0.014628151431679726,0.019696183502674103
1758440527531743500,7.069743408203125,0.004785805009305477,0.027765467762947083,0.034685928374528885
1758440527541714400,7.07971435546875,0.004602579399943352,0.03258392587304115,0.035765040665864944
1758440527551684400,7.089684326171875,0.006470798514783382,0.035408489406108856,0.022059006616473198
1758440527561655600,7.099655517578125,0.0027695372700691223,0.02550126239657402,0.0017579970881342888
1758440527571625500,7.10962548828125,0.0022311778739094734,0.0009807057213038206,-0.018826130777597427
1758440527581596400,7.119596435546875,-0.003842693753540516,-0.02225324511528015,-0.034576330333948135
1758440527591566300,7.12956640625,-0.00995238870382309,-0.028252918273210526,-0.040285419672727585
1758440527601537500,7.13953759765625,-0.012324199080467224,-0.028556784614920616,-0.034262415021657944
1758440527611507500,7.149507568359375,-0.007933460175991058,-0.022497380152344704,-0.022775907069444656
1758440527621477400,7.159477294921875,-0.0013362769968807697,-0.01269561517983675,-0.010053987614810467
1758440527631448600,7.169448486328125,0.007038431242108345,-0.0008744110818952322,-0.0012783634010702372
1758440527641418500,7.17941845703125,0.014414587989449501,0.008345186710357666,0.0012987772934138775
1758440527651389400,7.189389404296875,0.016039647161960602,0.009656989946961403,0.0031267222948372364
1758440527661359400,7.199359375,0.013725625351071358,0.009444735944271088,-0.0017503243871033192
1758440527671330600,7.20933056640625,0.00903327576816082,0.010171154513955116,-0.00974155031144619
1758440527681300500,7.219300537109375,0.0078287273645401,0.0023800767958164215,-0.015470011159777641
1758440527691271400,7.229271484375,0.008025132119655609,-0.005893670953810215,-0.02382202073931694
1758440527701241600,7.23924169921875,0.0032926949206739664,-0.0147422906011343,-0.03051268309354782
1758440527711212300,7.24921240234375,-0.005428587086498737,-0.022976133972406387,-0.027032649144530296
1758440527721182500,7.259182373046875,-0.006089850328862667,-0.013766389340162277,-0.012725615873932838
1758440527731153400,7.2691533203125,-0.004672282375395298,0.009716055355966091,0.002135905437171459
1758440527741123300,7.279123291015625,-0.0037745307199656963,0.026664946228265762,0.005428904201835394
1758440527751094300,7.28909423828125,-0.002550143748521805,0.03288844972848892,0.0025952765718102455
1758440527761064200,7.299064208984375,-0.0017818217165768147,0.012713141739368439,-0.003195767290890217
1758440527771035400,7.309035400390625,0.004979672841727734,-0.009232510812580585,-0.004832908511161804
1758440527781005300,7.31900537109375,0.010859133675694466,-0.012708468362689018,-0.009168269112706184
1758440527790976500,7.3289765625,0.0113275907933712,-0.0012076637940481305,-0.009989443235099316
1758440527800946400,7.338946533203125,0.013769976794719696,0.0051053594797849655,-0.0065672812052071095
1758440527810917400,7.34891748046875,0.011321866884827614,0.0030398471280932426,-0.006462328135967255
1758440527820887300,7.35888720703125,0.00770449498668313,-0.006250856444239616,-0.005867111962288618
1758440527830858500,7.3688583984375,0.0018255570903420448,-0.006501207128167152,-0.005786611698567867
1758440527840828400,7.378828369140625,-0.006150876637548208,-0.0006102949846535921,-0.003657414112240076
1758440527850799400,7.38879931640625,-0.007540615275502205,0.009344344027340412,-0.0026834835298359394
1758440527860769500,7.39876953125,-0.003010045737028122,0.019850514829158783,-0.0035468803253024817
1758440527870739500,7.408739501953125,-0.0032557565718889236,0.017905261367559433,-0.007798678241670132
1758440527880710400,7.41871044921875,-0.00103734340518713,-0.0017691061366349459,-0.014407578855752945
1758440527890680300,7.428680419921875,0.0009034490212798119,-0.01706858165562153,-0.017723215743899345
1758440527900651500,7.438651611328125,0.0022107947152107954,-0.015201440081000328,-0.021436993032693863
1758440527910621400,7.448621337890625,0.003997219726443291,-0.005157758481800556,-0.022538697347044945
1758440527920592400,7.45859228515625,0.0045490269549191,0.0008822907693684101,-0.01794580928981304
1758440527930562600,7.4685625,0.0037285068538039923,-0.001238917000591755,-0.011310011148452759
1758440527940533500,7.478533447265625,0.0018222162034362555,-0.0013281329302117229,-0.00397859513759613
1758440527950503400,7.48850341796875,-0.002703525125980377,0.004596248269081116,0.0016181813552975655
1758440527960474400,7.498474365234375,-0.001393516082316637,0.015554624609649181,0.004809713456779718
1758440527970444500,7.508444580078125,-0.0007643457502126694,0.014577209018170834,0.00976476725190878
1758440527980415200,7.518415283203125,0.000979758333414793,0.0037221636157482862,0.011071846820414066
1758440527990385400,7.528385498046875,0.0018348672892898321,-0.00822541955858469,0.007686873897910118
1758440528000356400,7.5383564453125,0.0021874697413295507,-0.005197138991206884,-0.002999326214194298
1758440528010326300,7.548326171875,-0.00036648381501436234,-0.0013829348608851433,-0.013586066663265228
1758440528020297500,7.55829736328125,-0.003870937041938305,-0.003921992611140013,-0.021522818133234978
1758440528030267400,7.568267333984375,-0.005251643713563681,0.0024962052702903748,-0.02231920324265957
1758440528040238300,7.57823828125,-0.01013880968093872,0.0004461039789021015,-0.01822832226753235
1758440528050208300,7.588208251953125,-0.010732842609286308,-0.0057887425646185875,-0.011213285848498344
1758440528060179500,7.598179443359375,-0.008330139331519604,-0.006109919399023056,-0.0059005459770560265
1758440528070149400,7.6081494140625,-0.005178282968699932,-0.0037576756440103054,0.004906924907118082
1758440528080120300,7.618120361328125,-0.0019087204709649086,-0.008905032649636269,0.0062981597147881985
1758440528090090500,7.628090576171875,0.0010929168201982975,-0.008737869560718536,0.001610221341252327
1758440528100061400,7.6380615234375,0.0029515367932617664,-0.009978636167943478,-0.004295072052627802
1758440528110031400,7.64803125,0.003928921651095152,-0.010155863128602505,-0.007104343734681606
1758440528120002600,7.65800244140625,0.0027803003322333097,-0.005092129111289978,-0.009029010310769081
1758440528129972500,7.667972412109375,0.002318246755748987,0.007433123886585236,-0.008023569360375404
1758440528139942400,7.6779423828125,-0.0028147301636636257,0.020207509398460388,-0.00712608452886343
1758440528149913300,7.687913330078125,-0.006878840271383524,0.021645257249474525,-0.005893187131732702
1758440528159883500,7.697883544921875,-0.007355812471359968,0.013942597433924675,-0.007011714857071638
1758440528169854500,7.7078544921875,-0.007476596161723137,0.002445751801133156,-0.010142428800463676
1758440528179824400,7.717824462890625,-0.001795007847249508,-0.009740873239934444,-0.015384594909846783
1758440528189795600,7.727795654296875,0.00015493761748075485,-0.010173797607421875,-0.018295126035809517
1758440528199765500,7.737765625,0.001464147586375475,-0.0027441109996289015,-0.01632332056760788
1758440528209736400,7.747736328125,0.0020521688275039196,0.0036307573318481445,-0.01333434134721756
1758440528219706400,7.757706298828125,-0.00040007010102272034,0.010549915954470634,-0.0052005150355398655
1758440528229677300,7.76767724609375,-0.006505077239125967,0.01746431365609169,-0.0016504558734595776
1758440528239647500,7.7776474609375,-0.008817499503493309,0.017237678170204163,0.00007447367534041405
1758440528249618200,7.7876181640625,-0.00967157632112503,0.014545755460858345,-0.007137100212275982
1758440528259588400,7.79758837890625,-0.009379159659147263,0.0020877534989267588,-0.013993941247463226
1758440528269559300,7.807559326171875,-0.010927267372608185,-0.017127035185694695,-0.015819251537322998
1758440528279529200,7.817529296875,-0.013026104308664799,-0.03009822778403759,-0.01636013761162758
1758440528289500400,7.82750048828125,-0.012127390131354332,-0.033181026577949524,-0.009074723348021507
1758440528299470300,7.83747021484375,-0.008935058489441872,-0.02906191721558571,0.000017840880900621414
1758440528309441300,7.847441162109375,-0.004635422490537167,-0.018529165536165237,0.004636846482753754
1758440528319411500,7.857411376953125,0.001373467966914177,-0.013022546656429768,0.005063218995928764
1758440528329382400,7.86738232421875,0.004227188881486654,-0.012157703749835491,-0.0042802076786756516
1758440528339352300,7.877352294921875,0.005939601920545101,-0.011581928469240665,-0.02033746987581253
1758440528349323500,7.887323486328125,0.005385944154113531,-0.016932599246501923,-0.03707354888319969
1758440528359293400,7.89729345703125,0.005165967158973217,-0.024291977286338806,-0.04423532262444496
1758440528369264400,7.907264404296875,0.005289512220770121,-0.011679548770189285,-0.042526692152023315
1758440528379234300,7.917234375,0.004457540810108185,0.008322921581566334,-0.029310226440429688
1758440528391698400,7.929698486328125,0.001105699921026826,0.01567745953798294,-0.0035757524892687798
1758440528401668400,7.93966845703125,-0.003192759118974209,0.01806330680847168,0.011337198317050934
1758440528411639600,7.9496396484375,-0.006687359418720007,0.00801706314086914,0.021262800320982933
1758440528421609500,7.959609375,-0.004816776141524315,-0.0022694910876452923,0.021630145609378815
1758440528431580400,7.969580322265625,-0.0035778735764324665,-0.011108523234724998,0.011328238993883133
1758440528441550600,7.979550537109375,-0.0022209947928786278,-0.02446514368057251,-0.002478702925145626
1758440528451520500,7.9895205078125,-0.0028335219249129295,-0.030437016859650612,-0.015377189964056015
1758440528461491500,7.999491455078125,-0.0012780954129993916,-0.01838596910238266,-0.019959785044193268
1758440528471461400,8.00946142578125,-0.0005419980734586716,0.00428312411531806,-0.018005825579166412
1758440528481432300,8.019432373046875,-0.0017301742918789387,0.01567135564982891,-0.012690860778093338
1758440528491402800,8.02940283203125,-0.003007426392287016,0.016793079674243927,-0.003249421715736389
1758440528501374000,8.0393740234375,-0.004604383837431669,0.013961050659418106,0.0004261797294020653
1758440528511343900,8.04934375,-0.005974846426397562,0.00456941407173872,0.0035878843627870083
1758440528521314800,8.059314697265625,-0.008725626394152641,-0.000393120339140296,0.005842250771820545
1758440528531284700,8.06928466796875,-0.009223118424415588,-0.007394858635962009,0.0049081468023359776
1758440528541256000,8.079255859375,-0.005986691918224096,-0.01027860026806593,-0.0005686553195118904
1758440528551225900,8.089225830078124,-0.005819977726787329,-0.0048561375588178635,-0.0048291804268956184
1758440528561196800,8.09919677734375,-0.0038792025297880173,0.00035849306732416153,-0.005872413516044617
1758440528571167000,8.1091669921875,0.0027355568017810583,0.006029695272445679,-0.004532311111688614
1758440528581138000,8.119137939453125,0.0035034678876399994,0.019138457253575325,-0.004051881842315197
1758440528591107800,8.12910791015625,0.0032411464489996433,0.035076677799224854,-0.008718006312847137
1758440528601079000,8.1390791015625,0.00312144891358912,0.03852398693561554,-0.018817240372300148
1758440528611049000,8.149049072265624,0.0009400537237524986,0.022494953125715256,-0.029802780598402023
1758440528621020000,8.15902001953125,-0.0031201946549117565,-0.01011577621102333,-0.03471483662724495
1758440528630989800,8.16898974609375,-0.004138853866606951,-0.030476441606879234,-0.028048411011695862
1758440528640961000,8.1789609375,-0.0006542466580867767,-0.027195869013667107,-0.013452012091875076
1758440528650931000,8.188930908203124,0.0009404539596289396,-0.01607504114508629,0.013147641904652119
1758440528660902100,8.198902099609375,0.006079818122088909,0.00430013332515955,0.03945957124233246
1758440528670872000,8.2088720703125,0.005436131730675697,0.023074086755514145,0.06052091717720032
1758440528680842800,8.2188427734375,0.007467585150152445,0.028443610295653343,0.06288512051105499
1758440528690813000,8.22881298828125,0.004516270011663437,0.023223282769322395,0.05706212297081947
1758440528700783900,8.238783935546875,0.002851672936230898,0.007904630154371262,0.04248398169875145
1758440528710753800,8.24875390625,0.0006617556791752577,-0.006650610826909542,0.025130823254585266
1758440528720724700,8.258724853515625,-0.003538582008332014,-0.015907758846879005,0.012188393622636795
1758440528730695000,8.26869482421875,-0.0020545492880046368,-0.01964755542576313,0.006000219844281673
1758440528740665900,8.278665771484375,0.0015870572533458471,-0.012702031061053276,0.009445817209780216
1758440528750635800,8.2886357421875,0.004295649006962776,-0.001291518216021359,0.01672954298555851
1758440528760607000,8.29860693359375,0.006889567710459232,0.008577624335885048,0.020806310698390007
1758440528770577000,8.308576904296874,0.008073342964053154,0.008485479280352592,0.01690557785332203
1758440528780547800,8.3185478515625,0.0014404738321900368,-0.0027956715784966946,0.005305647850036621
1758440528790517800,8.328517822265624,-0.002482915762811899,-0.015742991119623184,-0.010737407021224499
1758440528800489000,8.338489013671875,-0.00578363798558712,-0.03697957098484039,-0.019403332844376564
1758440528810459000,8.348458984375,-0.006199889816343784,-0.0406896211206913,-0.01902196928858757
1758440528820429800,8.358429931640625,-0.005697883665561676,-0.018081245943903923,-0.005553830415010452
1758440528830400000,8.36839990234375,-0.0030993055552244186,0.004281283356249332,0.018009260296821594
1758440528840371000,8.378370849609375,0.00101474579423666,0.016704395413398743,0.03740533068776131
1758440528850340900,8.3883408203125,0.005654911510646343,0.010880040004849434,0.04268655180931091
1758440528860310800,8.398310791015625,0.006315642036497593,-0.003437912557274103,0.034268829971551895
1758440528870282000,8.408281982421874,0.008768927305936813,-0.017840445041656494,0.018022781237959862
1758440528880252000,8.418251953125,0.006414959207177162,-0.03027394786477089,0.0011465968564152718
1758440528890223000,8.42822314453125,0.0032278308644890785,-0.03144429251551628,-0.006195194087922573
1758440528900193000,8.438193115234375,0.005284590180963278,-0.019551148638129234,-0.0037328351754695177
1758440528910164000,8.4481640625,0.006014434155076742,-0.003147234208881855,-0.0006410477217286825
1758440528920134000,8.4581337890625,0.004541439935564995,-0.001585823018103838,0.0037156175822019577
1758440528930105000,8.46810498046875,0.00044737127609550953,-0.017342669889330864,0.005429557990282774
1758440528940075000,8.478074951171875,-0.004280538763850927,-0.030876854434609413,-0.00028425431810319424
1758440528950046000,8.4880458984375,-0.011326076462864876,-0.03278059884905815,-0.015275457873940468
1758440528960016100,8.49801611328125,-0.016990087926387787,-0.03342162072658539,-0.03195616602897644
1758440528969986800,8.50798681640625,-0.011736078187823296,-0.02970122918486595,-0.04150355979800224
1758440528979957000,8.51795703125,-0.0048616607673466206,-0.023716041818261147,-0.04537952318787575
1758440528989928000,8.527927978515624,0.0018608339596539736,-0.01934674382209778,-0.03677297756075859
1758440528999897900,8.53789794921875,0.011071909219026566,-0.011462989263236523,-0.02299085259437561
1758440529009868800,8.547868896484376,0.015581442043185234,0.0010360938031226397,-0.012833241373300552
1758440529019838700,8.557838623046875,0.014149460010230541,0.010532127693295479,-0.007817177101969719
1758440529029810000,8.567809814453126,0.008061863481998444,0.005645113065838814,-0.0066121043637394905
1758440529039779800,8.57777978515625,0.004971797112375498,-0.008012643083930016,-0.0068461960181593895
1758440529049750800,8.587750732421876,0.0016197047661989927,-0.017795659601688385,-0.013794010505080223
1758440529059721000,8.597720947265625,-0.002289815805852413,-0.011622719466686249,-0.0198548324406147
1758440529069692000,8.60769189453125,-0.009172914549708366,-0.0017575726378709078,-0.019667111337184906
1758440529079661800,8.617661865234375,-0.008697274141013622,-0.0018728876020759344,-0.013669938780367374
1758440529089633000,8.627633056640626,-0.009885700419545174,-0.0041823359206318855,-0.002583507914096117
1758440529099603000,8.63760302734375,-0.007170607801526785,-0.005762122571468353,0.006313048303127289
1758440529109574000,8.647573974609376,-0.006452884059399366,-0.0070741926319897175,0.012964874505996704
1758440529119543800,8.657543701171875,-0.0022813081741333008,-0.00298197939991951,0.016469594091176987
1758440529129515000,8.667514892578126,0.005297505296766758,0.012858422473073006,0.016797980293631554
1758440529139485000,8.67748486328125,0.009745783172547817,0.01955467462539673,0.02057567425072193
1758440529149456100,8.6874560546875,0.013735986314713955,0.018468955531716347,0.02606089785695076
1758440529159426000,8.697426025390625,0.014985807240009308,0.01854805089533329,0.02942953258752823
1758440529169397000,8.70739697265625,0.015645883977413177,0.020112641155719757,0.029731113463640213
1758440529179367000,8.717366943359375,0.009405299089848995,0.02410365454852581,0.023365359753370285
1758440529189337900,8.727337890625,0.003922118805348873,0.025459805503487587,0.01184697262942791
1758440529199308000,8.73730810546875,0.00027385447174310684,0.03325141593813896,-0.005755722522735596
1758440529209278700,8.74727880859375,-0.005881111137568951,0.032471075654029846,-0.028031490743160248
1758440529219249000,8.757248779296875,-0.008808990940451622,0.014955198392271996,-0.04635137692093849
1758440529229219800,8.7672197265625,-0.011578277684748173,-0.007701077498495579,-0.05426972731947899
1758440529239189800,8.777189697265625,-0.011717827059328556,-0.020293302834033966,-0.05140736326575279
1758440529249161000,8.787160888671876,-0.00728339608758688,-0.018491337075829506,-0.031133200973272324
1758440529259131000,8.797130859375,0.0004935672041028738,-0.012341033667325974,-0.0016155228950083256
1758440529269101800,8.807101806640626,0.006264236755669117,0.004224858246743679,0.030409228056669235
1758440529279071700,8.81707177734375,0.010999869555234909,0.02238362282514572,0.049377329647541046
1758440529289043000,8.82704296875,0.014855070039629936,0.02750702202320099,0.05512968823313713
1758440529299012900,8.837012939453125,0.012880869209766388,0.026350945234298706,0.04530741646885872
1758440529308983800,8.84698388671875,0.005129862576723099,0.01552381832152605,0.02352200448513031
1758440529318954000,8.8569541015625,-0.0026263277977705,0.0019851059187203646,-0.0006600301712751389
1758440529328925000,8.866925048828126,-0.009860537014901638,-0.012020655907690525,-0.018257616087794304
1758440529338894800,8.876894775390625,-0.012617708183825016,-0.01994968391954899,-0.02936113439500332
1758440529348864800,8.88686474609375,-0.01502427738159895,-0.018906433135271072,-0.027478402480483055
1758440529358836000,8.8968359375,-0.009804481640458107,-0.0038041777443140745,-0.01424089539796114
1758440529368806000,8.906805908203125,-0.002505037933588028,0.011822367087006569,0.0030034128576517105
1758440529378777000,8.916777099609375,0.0054410360753536224,0.018348975107073784,0.019054286181926727
1758440529388747000,8.9267470703125,0.012682853266596794,0.021168919280171394,0.028231805190443993
1758440529398718000,8.936718017578125,0.013894325122237206,0.013721656985580921,0.025522837415337563
1758440529408687900,8.94668798828125,0.012948102317750454,0.010063735768198967,0.014210478402674198
1758440529418659000,8.9566591796875,0.005126398056745529,0.012320498004555702,0.00465532299131155
1758440529428629000,8.96662890625,0.0016856116708368063,0.01261213794350624,-0.004120997153222561
1758440529438600000,8.976599853515625,-0.0019876863807439804,0.013198565691709518,-0.007658740505576134
1758440529448570000,8.986570068359375,-0.004454182926565409,0.026550009846687317,-0.011140510439872742
1758440529458540800,8.996540771484375,-0.0031492342241108418,0.03285371512174606,-0.01679280400276184
1758440529468511000,9.006510986328125,-0.008216841146349907,0.020975101739168167,-0.02246614173054695
1758440529478482000,9.01648193359375,-0.008044002577662468,0.008231076411902905,-0.025301344692707062
1758440529488451600,9.02645166015625,-0.007803252898156643,-0.005173412151634693,-0.022972144186496735
1758440529498422500,9.036422607421875,-0.0012212498113512993,-0.00900942925363779,-0.01452166773378849
1758440529508392400,9.046392333984375,0.003317706286907196,0.009289313107728958,-0.010028191842138767
1758440529518363400,9.05636328125,0.004121182020753622,0.0303578469902277,-0.0031678888481110334
1758440529528333600,9.06633349609375,0.005986850243061781,0.030659137293696404,0.008974993601441383
1758440529538304500,9.076304443359374,0.004244343843311071,0.016161421313881874,0.01895252615213394
1758440529548274400,9.0862744140625,0.0031394120305776596,0.0007804199121892452,0.02296876534819603
1758440529558245600,9.09624560546875,0.0022515140008181334,-0.008786187507212162,0.025533657521009445
1758440529568215600,9.106215576171875,0.0021387175656855106,-0.02357017621397972,0.026558857411146164
1758440529578186500,9.1161865234375,0.0013070125132799149,-0.033411622047424316,0.02468106336891651
1758440529588156400,9.126156494140625,0.0013762570451945066,-0.03507116809487343,0.019168423488736153
1758440529598127600,9.136127685546874,-0.0005654538981616497,-0.027455857023596764,0.016642415896058083
1758440529608097500,9.14609765625,0.0021226208191365004,-0.01357787474989891,0.011134311556816101
1758440529618068500,9.156068359375,0.0033327611163258553,-0.00010760617442429066,0.0030508185736835003
1758440529628038700,9.16603857421875,0.006695268675684929,0.0002567141782492399,-0.006887566298246384
1758440529638009600,9.176009521484374,0.007279831916093826,-0.010267832316458225,-0.017712516710162163
1758440529647979500,9.1859794921875,0.006647186819463968,-0.020687896758317947,-0.02205566130578518
1758440529657950700,9.19595068359375,0.003942480310797691,-0.017900899052619934,-0.02265407331287861
1758440529667920600,9.205920654296875,0.001853766618296504,-0.0022762627340853214,-0.013435173779726028
1758440529677891600,9.2158916015625,0.0008646685164421797,0.011691750958561897,-0.0024570911191403866
1758440529687861800,9.22586181640625,-0.002718603704124689,0.014536954462528229,0.010371922515332699
1758440529697832700,9.235832763671874,-0.007913099601864815,0.012174731120467186,0.02136491797864437
1758440529707802600,9.245802734375,-0.008325244300067425,0.0061563896015286446,0.028697779402136803
1758440529717773600,9.255773681640624,-0.006595521233975887,0.004344108514487743,0.02634274587035179
1758440529727743700,9.26574365234375,-0.003947528079152107,-0.0029763043858110905,0.017707109451293945
1758440529737714400,9.27571435546875,-0.0038985256105661392,-0.006824306212365627,0.0025193672627210617
1758440529747684400,9.285684326171875,-0.002599564380943775,-0.008110705763101578,-0.0075645665638148785
1758440529757655600,9.295655517578124,-0.0022248574532568455,-0.006753559224307537,-0.011973163112998009
1758440529767625500,9.30562548828125,-0.00492437556385994,-0.006285281851887703,-0.011471282690763474
1758440529777596400,9.315596435546874,-0.003965371288359165,-0.0009672157466411591,-0.0011368864215910435
1758440529787566600,9.325566650390625,-0.004887502174824476,0.00907604768872261,0.008425289765000343
1758440529797537500,9.33553759765625,0.0006470787338912487,0.019618969410657883,0.013449610210955143
1758440529807507500,9.345507568359375,0.005605894140899181,0.02314307726919651,0.015058519318699837
1758440529817478700,9.355478759765624,0.007515646982938051,0.020118525251746178,0.015889959409832954
1758440529827448600,9.365448486328125,0.004332233686000109,0.013594673946499825,0.011912665329873562
1758440529837419500,9.37541943359375,-0.0004129866138100624,0.011620472185313702,0.007763461209833622
1758440529847389400,9.385389404296875,-0.006507744546979666,0.011110669933259487,0.0024746833369135857
1758440529857360600,9.395360595703124,-0.007825477048754692,0.004821348935365677,-0.006011745892465115
1758440529867330600,9.40533056640625,-0.010593041777610779,-0.009230298921465874,-0.008847678080201149
1758440529877301800,9.4153017578125,-0.007548782974481583,-0.014851965010166168,-0.009730782359838486
1758440529887271700,9.425271728515625,-0.00540255568921566,-0.008663398213684559,-0.006341035012155771
1758440529897242600,9.43524267578125,-0.004957540892064571,0.0077608488500118256,-0.002665872685611248
1758440529907212500,9.445212646484375,0.000384896295145154,0.02264249697327614,0.0028027910739183426
1758440529917183700,9.455183837890624,0.0033583156764507294,0.02097509242594242,0.0007468308322131634
1758440529927153700,9.465153564453125,0.005239580757915974,0.013977980241179466,-0.006089250557124615
1758440529937124600,9.47512451171875,0.005330394487828016,-0.001002566539682448,-0.012935970909893513
1758440529947094800,9.4850947265625,0.006274078041315079,-0.00927811674773693,-0.011332176625728607
1758440529957065500,9.4950654296875,0.008284498006105423,0.002225141040980816,-0.007669531740248203
1758440529967035600,9.50503564453125,0.005732395686209202,0.010442530736327171,-0.0036461418494582176
1758440529977006600,9.515006591796874,0.0012151419650763273,0.007149798795580864,-0.00014967774040997028
1758440529986976500,9.5249765625,-0.0022494946606457233,0.0029279927257448435,-0.004693754017353058
1758440529996947500,9.534947509765624,-0.0024929074570536613,-0.003691293764859438,-0.01113993488252163
1758440530006917400,9.54491748046875,-0.0065033575519919395,-0.0034693144261837006,-0.011606687679886818
1758440530016888600,9.554888671875,-0.005289755761623383,0.007875485345721245,-0.002718653529882431
1758440530026858500,9.5648583984375,-0.0038214330561459064,0.019452065229415894,0.009085480123758316
1758440530036829400,9.574829345703124,-0.00048582395538687706,0.022640399634838104,0.01891600526869297
1758440530046799600,9.584799560546875,0.0018553549889475107,0.016212787479162216,0.011977680958807468
1758440530056770600,9.5947705078125,0.0022926460951566696,0.002239180263131857,-0.0008305259980261326
1758440530066740500,9.604740478515625,-0.0014110025949776173,-0.013046085834503174,-0.010734462179243565
1758440530076711700,9.614711669921874,0.00028063729405403137,-0.01431215275079012,-0.008758396841585636
1758440530086681600,9.624681640625,-0.0022391164675354958,-0.006256794556975365,0.00004428904503583908
1758440530096652500,9.634652587890624,-0.002604768145829439,0.007054748944938183,0.010715308599174023
1758440530106622500,9.64462255859375,-0.003907461650669575,0.005370655097067356,0.018001914024353027
1758440530116593700,9.65459375,-0.00462997704744339,0.0013625978026539087,0.016784049570560455
1758440530126563600,9.6645634765625,0.0009949023369699717,0.009220011532306671,0.0058305514976382256
1758440530136534800,9.67453466796875,0.00006758980453014374,0.006336340680718422,-0.007271668873727322
1758440530146504700,9.684504638671875,-0.000832440797239542,-0.010003671981394291,-0.0139242485165596
1758440530156475600,9.6944755859375,-0.003525163047015667,-0.01682775653898716,-0.009536957368254662
1758440530166445600,9.704445556640625,-0.0010709203779697418,-0.006129727698862553,0.0019609914161264896
1758440530176416500,9.71441650390625,0.0004878279287368059,0.0094761298969388,0.011172866448760033
1758440530186386700,9.72438671875,-0.0017525581642985344,0.011394567787647247,0.015285242348909378
1758440530196357400,9.734357421875,-0.0051765842363238335,-0.000320677412673831,0.01625729538500309
1758440530206327600,9.74432763671875,-0.005933730863034725,-0.014464006759226322,0.01123277097940445
1758440530216298500,9.754298583984376,-0.005356357432901859,-0.016014499589800835,0.006958664394915104
1758440530226268400,9.764268310546875,0.0003299072850495577,-0.0030567659996449947,0.008060847409069538
1758440530236239600,9.774239501953126,0.004622124135494232,0.007397472858428955,0.013724327087402344
1758440530246209500,9.78420947265625,0.006197908893227577,0.005839446559548378,0.01896969974040985
1758440530256180500,9.794180419921876,0.0026226150803267956,-0.0017431059386581182,0.014163225889205933
1758440530266150400,9.804150390625,-0.005921874660998583,-0.01999075710773468,0.0011758995242416859
1758440530276121600,9.81412158203125,-0.010335797443985939,-0.030796000733971596,-0.0097622349858284
1758440530286091500,9.824091552734375,-0.007916051894426346,-0.021384526044130325,-0.015751522034406662
1758440530296062500,9.8340625,-0.0015548253431916237,-0.005983998067677021,-0.017053276300430298
1758440530306032600,9.84403271484375,0.002080258447676897,0.006520976312458515,-0.014249688014388084
1758440530316003600,9.854003662109376,0.003943139687180519,0.010087481699883938,-0.011248571798205376
1758440530325973500,9.863973388671875,0.004291753750294447,0.005431286059319973,-0.010767346248030663
1758440530335944700,9.87394482421875,0.001815546303987503,-0.007425123825669289,-0.011212093755602837
1758440530345914600,9.88391455078125,0.001015128567814827,-0.0069230906665325165,-0.011846372857689857
1758440530355885600,9.893885498046876,-0.00020273495465517044,0.0019558880012482405,-0.006043345667421818
1758440530365855700,9.903855712890625,-0.002629261463880539,0.009565388783812523,0.0037628477439284325
1758440530375826700,9.91382666015625,-0.0016614687629044056,0.014036037027835846,0.008980512619018555
1758440530385796600,9.923796630859375,-0.004597754217684269,0.012938758358359337,0.004770477768033743
1758440530395766500,9.9337666015625,-0.007967717945575714,0.0011510748881846666,-0.0064283814281225204
1758440530405737700,9.94373779296875,-0.008598203770816326,-0.012721806764602661,-0.009904494509100914
1758440530415708400,9.95370849609375,-0.00555208045989275,-0.024547839537262917,-0.011354852467775345
1758440530425678600,9.9636787109375,-0.0018739956431090832,-0.02193342335522175,-0.009737716987729073
1758440530435649500,9.9736494140625,-0.004712126217782497,-0.009261837229132652,-0.0004581983666867018
1758440530445619500,9.983619384765625,-0.0011480175890028477,0.007154686376452446,0.015759121626615524
1758440530455589600,9.993589599609376,0.005542375613003969,0.028370225802063942,0.024891633540391922
1758440530465560600,10.003560546875,0.003972033970057964,0.03936411067843437,0.02507745288312435
1758440530475531500,10.013531494140626,0.0014295140281319618,0.03013678826391697,0.01778385415673256
1758440530485501400,10.02350146484375,0.0009446849580854177,0.012875476852059364,0.00847847480326891
1758440530495472400,10.033472412109376,-0.0033581843599677086,-0.005434021353721619,-0.003062067087739706
1758440530505442600,10.043442626953125,-0.006097510457038879,-0.024861447513103485,-0.011172937229275703
1758440530515413500,10.05341357421875,-0.009295433759689331,-0.030028779059648514,-0.01355859823524952
1758440530525383400,10.063383544921875,-0.006163290701806545,-0.024687543511390686,-0.008353715762495995
1758440530535353300,10.073353271484375,-0.0025584357790648937,-0.012785876169800758,0.005105901043862104
1758440530545324500,10.083324462890625,0.002173203509300947,0.010905406437814236,0.013204360380768776
1758440530555295500,10.09329541015625,0.004669650923460722,0.02384144440293312,0.017642252147197723
1758440530565265400,10.103265380859375,0.004165658261626959,0.02558792755007744,0.01815183088183403
1758440530575236600,10.113236572265626,0.003722241846844554,0.020634450018405914,0.012283822521567345
1758440530585206500,10.12320654296875,0.0029489905573427677,0.012991605326533318,0.00032748468220233917
1758440530595176400,10.133176513671875,0.0013545560650527477,0.0037427132483571768,-0.011914534494280815
1758440530605147600,10.143147705078125,0.0010930337011814117,-0.01160614937543869,-0.02205665037035942
1758440530615118600,10.15311865234375,-0.003283339086920023,-0.019105078652501106,-0.023333104327321053
1758440530625088500,10.163088623046875,-0.0007935604080557823,-0.01091746985912323,-0.018216252326965332
1758440530635058700,10.17305859375,0.0011920926626771688,0.004885461181402206,-0.009098121896386147
1758440530645029600,10.183029541015625,0.0002711750566959381,0.015378786250948906,0.0025789309293031693
1758440530654999600,10.19299951171875,0.00030845915898680687,0.021213240921497345,0.012449138797819614
1758440530664970800,10.202970703125,-0.0028006494976580143,0.02508324384689331,0.014171327464282513
1758440530674941400,10.21294140625,-0.0041199796833097935,0.02176015079021454,0.013648281805217266
1758440530684911600,10.22291162109375,-0.003829029854387045,0.011076846159994602,0.00882473960518837
1758440530694881500,10.232881591796875,-0.004185893572866917,0.0036420992109924555,0.003549549262970686
1758440530704852500,10.2428525390625,-0.0030110226944088936,0.0014103609137237072,-0.006314478814601898
1758440530714823400,10.252823486328126,-0.002788382116705179,-0.0028078199829906225,-0.005504079163074493
1758440530724793300,10.26279345703125,-0.0025693480856716633,-0.0022908153478056192,0.0006400379352271557
1758440530734764500,10.2727646484375,0.0019220728427171707,0.005902132950723171,0.006229214370250702
1758440530744734500,10.282734375,0.004390690475702286,0.014541993848979473,0.013772375881671906
1758440530754705400,10.292705322265626,0.0052767242304980755,0.01924566924571991,0.010982183739542961
1758440530764675600,10.302675537109375,0.003472166135907173,0.021072067320346832,0.008168553933501244
1758440530774646500,10.312646484375,0.004824253264814615,0.01871410384774208,-0.002381026279181242
1758440530784616400,10.322616455078125,0.00437166029587388,0.010894977487623692,-0.006151734851300716
1758440530794587600,10.332587646484376,0.0033538001589477062,-0.00011213356629014015,-0.011819474399089813
1758440530804557600,10.3425576171875,-0.002266143448650837,-0.013991774059832096,-0.012577369809150696
1758440530814527500,10.352527587890625,-0.002030453644692898,-0.021822268143296242,-0.005221985280513763
1758440530824498400,10.36249853515625,-0.0033600470051169395,-0.013404527679085732,0.005449181888252497
1758440530834469600,10.3724697265625,0.001006205566227436,0.004252229817211628,0.012201361358165741
1758440530844439600,10.382439453125,0.0027055705431848764,0.012054363265633583,0.01605825498700142
1758440530854410800,10.39241064453125,0.005070723593235016,0.003196156583726406,0.014487256295979023
1758440530864380700,10.402380615234375,0.005303484387695789,-0.003549630520865321,0.008902340196073055
1758440530874350600,10.4123505859375,0.004931174218654633,-0.006762201897799969,0.0014353697188198566
1758440530884321500,10.422321533203124,0.0029476454947143793,-0.005754869431257248,-0.007442859001457691
1758440530894292500,10.43229248046875,0.002294904785230756,0.002266571158543229,-0.018908565863966942
1758440530904262700,10.4422626953125,-0.0036214347928762436,0.00003415113314986229,-0.025209050625562668
1758440530914233300,10.4522333984375,-0.009564545005559921,-0.007793944329023361,-0.02491983026266098
1758440530924203500,10.46220361328125,-0.011340608820319176,-0.01638803258538246,-0.02191370725631714
1758440530934174500,10.472174560546875,-0.008517125621438026,-0.017804834991693497,-0.012026455253362656
1758440530944144400,10.482144287109374,-0.002129404805600643,-0.009183689951896667,-0.0008675141725689173
1758440530954115600,10.492115478515625,0.003822494065389037,0.0005586862098425627,0.007848478853702545
1758440530964085500,10.50208544921875,0.011297859251499176,0.012283094227313995,0.009918577037751675
1758440530974056400,10.512056396484375,0.015121359378099442,0.01047747116535902,0.0074546197429299355
1758440530984026400,10.5220263671875,0.014778735116124153,0.004464406985789537,0.0012020268477499485
1758440530993997600,10.53199755859375,0.011149912141263485,0.0008124143350869417,-0.005548287648707628
1758440531003967500,10.541967529296874,0.007765842601656914,-0.0015157745219767094,-0.01174168474972248
1758440531013938400,10.5519384765625,0.0030653635039925575,-0.011214740574359894,-0.013570744544267654
1758440531023908600,10.56190869140625,-0.0075376140885055065,-0.025307757779955864,-0.0077829742804169655
1758440531033879600,10.571879638671875,-0.009372532367706299,-0.011458255350589752,-0.006304387003183365
1758440531043849500,10.581849365234374,-0.007270229049026966,0.006821620278060436,0.0017307917587459087
1758440531053820700,10.591820556640625,-0.011135009117424488,0.021426929160952568,0.010377010330557823
1758440531063790600,10.60179052734375,-0.012681232765316963,0.037970758974552155,0.010568695142865181
1758440531073761500,10.611761474609375,-0.008671844378113747,0.03510013967752457,0.003708925563842058
1758440531083731700,10.621731689453124,-0.007474371697753668,0.015190288424491882,-0.006921946071088314
1758440531093702700,10.63170263671875,-0.009270140901207924,-0.010479921475052834,-0.015742335468530655
1758440531103672600,10.641672607421874,-0.004066054243594408,-0.017125435173511505,-0.022469691932201385
1758440531113643500,10.6516435546875,0.00025865272618830204,-0.013812728226184845,-0.01533934473991394
1758440531123613700,10.66161376953125,0.003099583787843585,-0.0007550116861239076,-0.003714995924383402
1758440531133584400,10.67158447265625,0.003295858623459935,0.012039612978696823,0.013284494169056416
1758440531143554600,10.681554443359374,0.004696409683674574,0.01838638447225094,0.027446387335658073
1758440531153525500,10.691525390625,0.0023637469857931137,0.018986927345395088,0.032748743891716
1758440531163495400,10.701495361328124,-0.0009906277991831303,0.013059308752417564,0.0279320627450943
1758440531173466400,10.71146630859375,-0.0016199327073991299,0.008377740159630775,0.0237884484231472
1758440531183436500,10.7214365234375,-0.0016337917186319828,0.00007465481758117676,0.01209691446274519
1758440531193407500,10.731407470703125,-0.0019829324446618557,-0.00511158537119627,-0.001937145832926035
1758440531203377400,10.74137744140625,-0.00464209821075201,-0.010546032339334488,-0.013312305323779583
1758440531213348600,10.7513486328125,-0.00467219203710556,-0.013845687732100487,-0.01736404001712799
1758440531223318500,10.761318603515624,0.0003695748746395111,-0.010648258961737156,-0.01928287371993065
1758440531233289500,10.77128955078125,-0.00019927648827433586,-0.007685225456953049,-0.01743677258491516
1758440531243259400,10.78125927734375,-0.002638333011418581,-0.006414931267499924,-0.014262042939662933
1758440531253230600,10.791230712890625,-0.0005117985419929028,-0.003753634635359049,-0.00743023632094264
1758440531263200500,10.801200439453124,-0.0008805138058960438,0.0018754545599222183,-0.0005728891119360924
1758440531273171500,10.81117138671875,-0.003499732818454504,0.006312014535069466,0.006907930132001638
1758440531283141600,10.8211416015625,-0.0011925045400857925,0.003702015383169055,0.012832318432629108
1758440531293112600,10.831112548828125,-0.00007264548912644386,0.005221082828938961,0.00712649617344141
1758440531303082500,10.84108251953125,0.004946216009557247,0.007799123413860798,-0.0009981957264244556
1758440531313053700,10.8510537109375,0.005301482044160366,0.0037921317853033543,-0.011727539822459221
1758440531323023600,10.861023681640624,0.0038255725521594286,-0.004640548024326563,-0.01908715069293976
1758440531332994600,10.87099462890625,0.003724904963746667,-0.0076405988074839115,-0.02162514254450798
1758440531342964700,10.88096484375,-0.00008063390851020813,-0.0006694957846775651,-0.01575932651758194
1758440531352935700,10.890935791015625,-0.001172796357423067,0.010530428029596806,-0.008264657109975815
1758440531362905600,10.900905517578124,-0.0031591146253049374,0.016915123909711838,-0.0019484118092805147
1758440531372876500,10.91087646484375,-0.001961757428944111,0.013932384550571442,-0.0017457450740039349
1758440531382846700,10.9208466796875,0.0019775915425270796,-0.003864388447254896,-0.0018460936844348907
1758440531392817400,10.9308173828125,0.003047649748623371,-0.010214429348707199,-0.005538300145417452
1758440531402787300,10.940787353515624,0.0049813720397651196,-0.014461038634181023,-0.0065222857519984245
1758440531412758500,10.950758544921875,0.005392563994973898,-0.012659143656492233,-0.004778447560966015
1758440531422728400,10.960728515625,0.00581560330465436,-0.0005561807192862034,-0.005462052766233683
1758440531432699400,10.970699462890625,0.002385984407737851,0.008032780140638351,-0.006696428172290325
1758440531442669600,10.980669677734374,-0.00046052923426032066,0.005054209381341934,-0.008694522082805634
1758440531452640500,10.990640625,-0.0045455521903932095,0.000004323665052652359,-0.01243493240326643
1758440531462610400,11.0006103515625,-0.006346914451569319,-0.0011001573875546455,-0.014251526445150375
1758440531472581600,11.01058154296875,-0.0030014519579708576,-0.004930049180984497,-0.01397828571498394
1758440531482551600,11.020551513671874,-0.0004295096732676029,-0.011623479425907135,-0.011887195520102978
1758440531492522000,11.03052197265625,0.002614483702927828,-0.017330899834632874,-0.0046726916916668415
1758440531502492200,11.0404921875,0.006835594307631254,-0.019992129877209663,0.002596725709736347
1758440531512463000,11.050463134765625,0.010221270844340324,-0.01647648960351944,0.00938405841588974
1758440531522433000,11.06043310546875,0.010378392413258553,-0.004840346984565258,0.01317921094596386
1758440531532404200,11.070404296875,0.00678605493158102,-0.0013984779361635447,0.015367530286312103
1758440531542374100,11.0803740234375,0.0035037135239690542,-0.010416200384497643,0.020796768367290497
1758440531552345000,11.090344970703125,0.005539434030652046,-0.00636926107108593,0.02796786278486252
1758440531562315000,11.10031494140625,0.011006634682416916,0.013827549293637276,0.024443434551358223
1758440531572286200,11.1102861328125,0.010801570490002632,0.027103140950202942,0.008072715252637863
1758440531582256000,11.120256103515626,0.009001675061881542,0.017504211515188217,-0.008079754188656807
1758440531592227000,11.13022705078125,0.004170168191194534,-0.0032806959934532642,-0.02499721758067608
1758440531602197200,11.140197265625,-0.0022833342663943768,-0.01920429803431034,-0.03608670085668564
1758440531612168200,11.150168212890625,-0.006261031609028578,-0.015329664573073387,-0.03826410323381424
1758440531622138000,11.16013818359375,-0.004455674905329943,0.0032501446548849344,-0.031311921775341034
1758440531632109000,11.170109130859375,0.0027359253726899624,0.018672777339816093,-0.02014022506773472
1758440531642079200,11.180079345703126,0.007184742484241724,0.026330839842557907,-0.01713826321065426
1758440531652050000,11.1900498046875,0.0026877287309616804,0.009211773052811623,-0.012672407552599907
1758440531662020000,11.20002001953125,0.005280580837279558,-0.017720842733979225,-0.009737123735249043
1758440531671991000,11.209990966796875,0.005908820778131485,-0.022878054529428482,-0.009472938254475594
1758440531681961000,11.2199609375,0.005719066597521305,-0.010224017314612865,-0.0036983222234994173
1758440531691932000,11.229931884765625,0.0045384871773421764,0.00605348963290453,0.0037042004987597466
1758440531701902000,11.239902099609376,0.004180425778031349,0.015035834163427353,0.01652521640062332
1758440531711873000,11.249873046875,0.004887228831648827,0.019122455269098282,0.023955434560775757
1758440531721843000,11.259843017578126,0.004009183496236801,0.021812977269291878,0.02083495631814003
1758440531731814100,11.269814208984375,0.0016205944120883942,0.019684046506881714,0.005640824791043997
1758440531741784000,11.2797841796875,-0.0014987671747803688,0.00887234415858984,-0.011498266831040382
1758440531751755000,11.289755126953125,-0.004332903306931257,0.0019260209519416094,-0.02911374717950821
1758440531761725200,11.29972509765625,-0.01012275367975235,-0.0002844433765858412,-0.04156661406159401
1758440531771696000,11.309696044921875,-0.013828009366989136,-0.006737282499670982,-0.03729463741183281
1758440531781666000,11.319666015625,-0.011485619470477104,0.0007146846037358046,-0.021081015467643738
1758440531791637200,11.32963720703125,-0.0058402507565915585,0.02193022519350052,0.0009497189894318581
1758440531801607200,11.339607177734376,0.0039384737610816956,0.03388937562704086,0.019275225698947906
1758440531811578000,11.349578125,0.008632827550172806,0.028012312948703766,0.02568012848496437
1758440531821548000,11.359548095703126,0.010211814194917679,0.008653927594423294,0.017896931618452072
1758440531831519200,11.369519287109375,0.006784858647733927,-0.029267091304063797,0.0031755100935697556
1758440531841489200,11.3794892578125,0.002776273526251316,-0.05096505582332611,-0.005415528547018766
1758440531851460000,11.389460205078125,0.001327247591689229,-0.038110245019197464,-0.0042938049882650375
1758440531861430300,11.39943017578125,-0.00010021170601248741,-0.018131082877516747,0.007995564490556717
1758440531871401000,11.40940087890625,-0.0020158234983682632,-0.0014048326993361115,0.020636525005102158
1758440531881371100,11.41937109375,-0.0015937145799398422,0.012630688026547432,0.027044031769037247
1758440531891342000,11.429342041015625,0.003122743684798479,0.016618773341178894,0.019167199730873108
1758440531901312000,11.43931201171875,0.0021356611978262663,0.005430624820291996,0.0034734769724309444
1758440531911283000,11.449282958984375,0.0005809077993035316,-0.006363983266055584,-0.015999557450413704
1758440531921252900,11.4592529296875,0.0009719992522150278,-0.016991352662444115,-0.030015597119927406
1758440531931224000,11.46922412109375,0.0003394985105842352,-0.025909747928380966,-0.032398857176303864
1758440531941194000,11.479194091796876,0.0006667796988040209,-0.020459149032831192,-0.02218199148774147
1758440531951165000,11.4891650390625,0.0025845221243798733,-0.0069257644936442375,-0.00828162208199501
1758440531961135000,11.499135009765626,0.006046908907592297,0.010106697678565979,0.004825968760997057
1758440531971106000,11.50910595703125,0.007543605752289295,0.019031750038266182,0.012542478740215302
1758440531981076000,11.519075927734375,0.007835745811462402,0.015597125515341759,0.007799823302775621
1758440531991047200,11.529047119140625,0.007580348756164312,0.005668329074978828,-0.00403553107753396
1758440532001017000,11.53901708984375,0.005107338540256023,-0.009857299737632275,-0.016838625073432922
1758440532010988000,11.548988037109375,0.003925693687051535,-0.024153146892786026,-0.02308027446269989
1758440532020958200,11.558958251953126,0.00023135915398597717,-0.02655118890106678,-0.0213770791888237
1758440532030929200,11.56892919921875,-0.00028023403137922287,-0.027239348739385605,-0.0059118373319506645
1758440532040899000,11.578899169921876,0.0022917084861546755,-0.018296295776963234,0.011975526809692383
1758440532050870300,11.588870361328125,0.003774556564167142,0.002810321282595396,0.025065762922167778
1758440532060840200,11.598840087890625,0.004075093660503626,0.017006799578666687,0.031168902292847633
1758440532070811100,11.60881103515625,0.0028364574536681175,0.019407108426094055,0.02494669333100319
1758440532080781000,11.618781005859375,-0.0007153968326747417,0.006175728514790535,0.006275482475757599
1758440532090752000,11.628751953125,-0.003956464119255543,-0.007068970240652561,-0.013658012263476849
1758440532100723000,11.638722900390626,-0.0038214479573071003,-0.013700449839234352,-0.02809320017695427
1758440532110692900,11.64869287109375,-0.005154360551387072,-0.01789945736527443,-0.029766999185085297
1758440532120664000,11.6586640625,-0.0038249101489782333,-0.019393088296055794,-0.017498238012194633
1758440532130634000,11.668634033203125,-0.0032600536942481995,-0.004773666616529226,0.0005020671524107456
1758440532140605000,11.67860498046875,-0.0014705401845276356,0.01230815052986145,0.022076312452554703
1758440532150575000,11.6885751953125,0.00232473062351346,0.025928622111678123,0.037663526833057404
1758440532160546000,11.698546142578126,0.003727426752448082,0.02946271374821663,0.036501530557870865
1758440532170516000,11.708515869140625,0.0026642929296940565,0.02025696635246277,0.021146807819604874
1758440532180487200,11.718487060546876,-0.0006725210696458817,-0.0045440951362252235,-0.0011609150096774101
1758440532190457000,11.72845703125,-0.002500248607248068,-0.03383833169937134,-0.014627454802393913
1758440532200428000,11.738427978515626,-0.0022957096807658672,-0.043531764298677444,-0.016744304448366165
1758440532210398000,11.74839794921875,-0.002302633598446846,-0.021806759759783745,-0.004878323525190353
1758440532220369200,11.758369140625,0.00043455115519464016,0.010586848482489586,0.013232670724391937
1758440532230339000,11.768339111328125,0.0021251258440315723,0.035555582493543625,0.021233072504401207
