time,seconds_elapsed,z,y,x
1758447529636839400,0.01883935546875,-0.8303375244140625,-0.3032073974609375,-0.013214111328125
1758447529646811400,0.028811279296875,-0.8104705810546875,-0.307769775390625,-0.019683837890625
1758447529656783600,0.03878369140625,-0.810546875,-0.30499267578125,-0.0189971923828125
1758447529666756400,0.04875634765625,-0.827056884765625,-0.29132080078125,-0.01800537109375
1758447529676728600,0.058728515625,-0.85858154296875,-0.2794342041015625,-0.0155792236328125
1758447529686701600,0.06870166015625,-0.9051513671875,-0.273895263671875,-0.01025390625
1758447529696673300,0.07867333984375,-0.9439544677734375,-0.2696075439453125,-0.0141143798828125
1758447529706646500,0.088646484375,-0.9592742919921875,-0.2685546875,-0.0214385986328125
1758447529716618500,0.098618408203125,-0.9627227783203125,-0.2674713134765625,-0.0194244384765625
1758447529726591500,0.108591552734375,-0.962188720703125,-0.26910400390625,-0.013153076171875
1758447529736563500,0.1185634765625,-0.9465179443359375,-0.271484375,-0.010589599609375
1758447529746536400,0.128536376953125,-0.92547607421875,-0.2761383056640625,-0.01446533203125
1758447529756508700,0.1385087890625,-0.906280517578125,-0.285858154296875,-0.013336181640625
1758447529766480400,0.14848046875,-0.890533447265625,-0.29486083984375,-0.0074310302734375
1758447529776453400,0.158453369140625,-0.8904571533203125,-0.302581787109375,-0.0101165771484375
1758447529786425600,0.168425537109375,-0.89801025390625,-0.3046722412109375,-0.0215606689453125
1758447529796398300,0.1783984375,-0.91455078125,-0.3022918701171875,-0.0233306884765625
1758447529806370600,0.18837060546875,-0.9358673095703125,-0.296539306640625,-0.0191802978515625
1758447529816343600,0.198343505859375,-0.95550537109375,-0.2931671142578125,-0.0097198486328125
1758447529826315500,0.2083154296875,-0.9678192138671875,-0.290130615234375,0.0010986328125
1758447529836288500,0.21828857421875,-0.9701385498046875,-0.2879791259765625,0.0106964111328125
1758447529846260500,0.228260498046875,-0.96917724609375,-0.2900543212890625,0.0101318359375
1758447529856233500,0.2382333984375,-0.9630889892578125,-0.2946624755859375,0.0059661865234375
1758447529866205400,0.248205322265625,-0.95587158203125,-0.3029937744140625,0.0066986083984375
1758447529876177700,0.258177734375,-0.942169189453125,-0.312469482421875,0.0069732666015625
1758447529886150400,0.268150390625,-0.931549072265625,-0.313507080078125,0.0076751708984375
1758447529896122400,0.278122314453125,-0.9332427978515625,-0.3130340576171875,0.005126953125
1758447529906095600,0.288095703125,-0.9354400634765625,-0.3115081787109375,-0.0032958984375
1758447529916067300,0.2980673828125,-0.933197021484375,-0.30706787109375,-0.0071563720703125
1758447529926040300,0.308040283203125,-0.937255859375,-0.306121826171875,-0.001373291015625
1758447529936012500,0.318012451171875,-0.9450836181640625,-0.301788330078125,-0.0023040771484375
1758447529945985500,0.327985595703125,-0.949371337890625,-0.298126220703125,-0.0070648193359375
1758447529955957500,0.33795751953125,-0.9469757080078125,-0.2969512939453125,-0.0054779052734375
1758447529965930000,0.347929931640625,-0.937347412109375,-0.294952392578125,-0.00115966796875
1758447529975902200,0.357902099609375,-0.915374755859375,-0.291046142578125,0.0037841796875
1758447529985874200,0.367874267578125,-0.893157958984375,-0.289642333984375,0.005706787109375
1758447529995847000,0.377846923828125,-0.8840789794921875,-0.28997802734375,0.006561279296875
1758447530005819100,0.387819091796875,-0.883575439453125,-0.29248046875,0.009033203125
1758447530015792000,0.397792236328125,-0.8873443603515625,-0.294189453125,0.01220703125
1758447530025764000,0.40776416015625,-0.8950347900390625,-0.2940216064453125,0.0064544677734375
1758447530035737000,0.417737060546875,-0.9073028564453125,-0.29638671875,0.0018310546875
1758447530045709000,0.427708984375,-0.9171600341796875,-0.30499267578125,0.0031280517578125
1758447530055682300,0.437682373046875,-0.9245452880859375,-0.3153076171875,0.00390625
1758447530065654000,0.447654052734375,-0.932403564453125,-0.3224945068359375,0.0009765625
1758447530075627000,0.457626953125,-0.9397430419921875,-0.3294219970703125,0.0035400390625
1758447530085599200,0.46759912109375,-0.9451751708984375,-0.3346710205078125,-0.00018310546875
1758447530095572000,0.477572021484375,-0.9460601806640625,-0.335968017578125,-0.006439208984375
1758447530105544200,0.487544189453125,-0.95025634765625,-0.336700439453125,-0.0052947998046875
1758447530115516200,0.49751611328125,-0.9524383544921875,-0.3335723876953125,-0.0011749267578125
1758447530125489000,0.507489013671875,-0.94842529296875,-0.331573486328125,0.006866455078125
1758447530135461000,0.517461181640625,-0.9438629150390625,-0.33197021484375,0.01483154296875
1758447530145434000,0.52743408203125,-0.936981201171875,-0.3340606689453125,0.021881103515625
1758447530155406000,0.537406005859375,-0.9368896484375,-0.3326873779296875,0.0273590087890625
1758447530165379000,0.547379150390625,-0.944610595703125,-0.3327789306640625,0.03369140625
1758447530175351000,0.55735107421875,-0.9447021484375,-0.334228515625,0.031646728515625
1758447530185324300,0.56732421875,-0.9350738525390625,-0.3349456787109375,0.027191162109375
1758447530195296000,0.5772958984375,-0.9324798583984375,-0.3326568603515625,0.021392822265625
1758447530205269000,0.58726904296875,-0.932220458984375,-0.3296051025390625,0.0241851806640625
1758447530215241200,0.5972412109375,-0.9363861083984375,-0.3278961181640625,0.0294036865234375
1758447530225213000,0.607212890625,-0.9418487548828125,-0.326690673828125,0.0299530029296875
1758447530235186200,0.617186279296875,-0.94891357421875,-0.3263702392578125,0.033172607421875
1758447530245158100,0.627158203125,-0.94744873046875,-0.3299407958984375,0.0351409912109375
1758447530255131000,0.637130859375,-0.9306640625,-0.330169677734375,0.040679931640625
1758447530265103000,0.64710302734375,-0.918548583984375,-0.3278045654296875,0.0426025390625
1758447530275076000,0.657076171875,-0.912139892578125,-0.3323516845703125,0.037384033203125
1758447530285048000,0.667048095703125,-0.913055419921875,-0.3353729248046875,0.0321044921875
1758447530295021000,0.67702099609375,-0.9190521240234375,-0.33099365234375,0.0300140380859375
1758447530304993300,0.6869931640625,-0.93035888671875,-0.3255157470703125,0.03192138671875
1758447530314966300,0.69696630859375,-0.946929931640625,-0.3202667236328125,0.0351715087890625
1758447530324938000,0.70693798828125,-0.959228515625,-0.3185882568359375,0.0326995849609375
1758447530334910200,0.71691015625,-0.967926025390625,-0.3148040771484375,0.0293426513671875
1758447530344883200,0.72688330078125,-0.9740142822265625,-0.31158447265625,0.032562255859375
1758447530354855200,0.736855224609375,-0.9764862060546875,-0.311859130859375,0.0364532470703125
1758447530364828200,0.746828125,-0.9811248779296875,-0.3140716552734375,0.0389862060546875
1758447530374800100,0.756800048828125,-0.9826507568359375,-0.3123931884765625,0.03863525390625
1758447530384773000,0.766773193359375,-0.9859161376953125,-0.3063507080078125,0.034027099609375
1758447530394745000,0.7767451171875,-0.9794921875,-0.30328369140625,0.0284881591796875
1758447530404718000,0.786718017578125,-0.9667816162109375,-0.3069915771484375,0.0300750732421875
1758447530414690000,0.79668994140625,-0.9520721435546875,-0.3148040771484375,0.026611328125
1758447530424663000,0.8066630859375,-0.93597412109375,-0.3219451904296875,0.021728515625
1758447530434635300,0.81663525390625,-0.9297332763671875,-0.3238372802734375,0.0194244384765625
1758447530444607000,0.82660693359375,-0.929595947265625,-0.32281494140625,0.0173187255859375
1758447530454580000,0.836580078125,-0.9246978759765625,-0.32525634765625,0.009735107421875
1758447530464552200,0.84655224609375,-0.9202423095703125,-0.3296051025390625,0.006256103515625
1758447530474525200,0.856525146484375,-0.9141998291015625,-0.332733154296875,0.005126953125
1758447530484497200,0.8664970703125,-0.9046783447265625,-0.3363494873046875,0.002899169921875
1758447530494470100,0.87647021484375,-0.8960723876953125,-0.3391876220703125,0.00347900390625
1758447530504442000,0.886442138671875,-0.8989715576171875,-0.34014892578125,0.006072998046875
1758447530514415000,0.8964150390625,-0.910186767578125,-0.3406982421875,0.00335693359375
1758447530524387000,0.906386962890625,-0.9206085205078125,-0.337677001953125,-0.0018310546875
1758447530534360000,0.916360107421875,-0.9376373291015625,-0.3319244384765625,-0.0011749267578125
1758447530544332000,0.92633203125,-0.9495086669921875,-0.326904296875,0.000244140625
1758447530554305000,0.936304931640625,-0.9506683349609375,-0.321441650390625,0.0000457763671875
1758447530564277200,0.94627734375,-0.9431915283203125,-0.3135528564453125,0.0042572021484375
1758447530574249000,0.9562490234375,-0.9392547607421875,-0.31072998046875,0.009552001953125
1758447530584222000,0.966221923828125,-0.9420928955078125,-0.309844970703125,0.013671875
1758447530594194200,0.976194091796875,-0.946044921875,-0.3086700439453125,0.01458740234375
1758447530604167200,0.986167236328125,-0.944488525390625,-0.3065185546875,0.0149993896484375
1758447530614139100,0.99613916015625,-0.940765380859375,-0.304229736328125,0.0157012939453125
1758447530624112000,1.006112060546875,-0.9416046142578125,-0.30511474609375,0.0126800537109375
1758447530634084000,1.016083984375,-0.9458160400390625,-0.308197021484375,0.0072479248046875
1758447530644057000,1.02605712890625,-0.9557037353515625,-0.3098907470703125,0.0037994384765625
1758447530654029000,1.036029052734375,-0.9706573486328125,-0.3128204345703125,0.002899169921875
1758447530664002300,1.046002197265625,-0.9727783203125,-0.312225341796875,0.0029144287109375
1758447530673974000,1.05597412109375,-0.9565887451171875,-0.3135528564453125,-0.00091552734375
1758447530683946200,1.0659462890625,-0.9340667724609375,-0.31842041015625,-0.0073699951171875
1758447530693919200,1.075919189453125,-0.912750244140625,-0.3256378173828125,-0.003204345703125
1758447530703891000,1.085890869140625,-0.8954315185546875,-0.3285980224609375,-0.0004730224609375
1758447530713864200,1.0958642578125,-0.8858642578125,-0.3331451416015625,0.0030517578125
1758447530723836200,1.105836181640625,-0.8874969482421875,-0.33648681640625,0.0045928955078125
1758447530733809000,1.115808837890625,-0.8913726806640625,-0.3363189697265625,0.0045623779296875
1758447530743781000,1.125781005859375,-0.899688720703125,-0.3355712890625,0.008087158203125
1758447530753754000,1.135754150390625,-0.915618896484375,-0.3300323486328125,0.0057373046875
1758447530763726000,1.14572607421875,-0.9371490478515625,-0.324859619140625,0.0044708251953125
1758447530773699000,1.155698974609375,-0.955810546875,-0.320404052734375,0.0062255859375
1758447530783671000,1.165671142578125,-0.9669952392578125,-0.322021484375,0.008819580078125
1758447530793644300,1.175644287109375,-0.968017578125,-0.326995849609375,0.00616455078125
1758447530803616000,1.185615966796875,-0.9622955322265625,-0.3268890380859375,0.0064697265625
1758447530813588200,1.195588134765625,-0.9566650390625,-0.3261260986328125,0.013092041015625
1758447530823561200,1.205561279296875,-0.952301025390625,-0.325103759765625,0.0189666748046875
1758447530833533000,1.215532958984375,-0.9531402587890625,-0.3213348388671875,0.026153564453125
1758447530843506200,1.225506103515625,-0.954803466796875,-0.3163604736328125,0.02886962890625
1758447530853478100,1.23547802734375,-0.9571533203125,-0.315155029296875,0.026611328125
1758447530863451000,1.245450927734375,-0.9585418701171875,-0.310699462890625,0.0254058837890625
1758447530873423000,1.255423095703125,-0.95050048828125,-0.307647705078125,0.026336669921875
1758447530883396000,1.26539599609375,-0.9389801025390625,-0.307891845703125,0.02752685546875
1758447530893368000,1.2753681640625,-0.9303741455078125,-0.3095855712890625,0.0279693603515625
1758447530903341000,1.285341064453125,-0.92987060546875,-0.3119049072265625,0.028289794921875
1758447530913313000,1.29531298828125,-0.9339141845703125,-0.3134307861328125,0.0287933349609375
1758447530923286300,1.305286376953125,-0.94158935546875,-0.3137969970703125,0.029296875
1758447530933258000,1.315258056640625,-0.945068359375,-0.3152923583984375,0.0304107666015625
1758447530943230200,1.325230224609375,-0.944061279296875,-0.31787109375,0.0301971435546875
1758447530953203200,1.335203125,-0.9381103515625,-0.3197784423828125,0.031890869140625
1758447530963174700,1.345174560546875,-0.9250946044921875,-0.3187103271484375,0.0305328369140625
1758447530973147600,1.355147705078125,-0.91552734375,-0.3203125,0.029052734375
1758447530983119600,1.36511962890625,-0.9141998291015625,-0.3195343017578125,0.0250701904296875
1758447530993092600,1.375092529296875,-0.9250640869140625,-0.3172149658203125,0.0274810791015625
1758447531003064600,1.385064697265625,-0.9424896240234375,-0.317169189453125,0.02886962890625
1758447531013037600,1.39503759765625,-0.9521636962890625,-0.3203277587890625,0.02783203125
1758447531023009500,1.405009521484375,-0.9567108154296875,-0.3223724365234375,0.030029296875
1758447531032982500,1.414982421875,-0.9575958251953125,-0.322540283203125,0.0308990478515625
1758447531042954800,1.424954833984375,-0.9576873779296875,-0.319610595703125,0.0286865234375
1758447531052927700,1.434927734375,-0.95452880859375,-0.316375732421875,0.0332489013671875
1758447531062899700,1.444899658203125,-0.9474945068359375,-0.3138275146484375,0.035308837890625
1758447531072871700,1.45487158203125,-0.940185546875,-0.3130950927734375,0.0337982177734375
1758447531082844700,1.4648447265625,-0.936187744140625,-0.3141937255859375,0.034637451171875
1758447531092816600,1.474816650390625,-0.9372711181640625,-0.316619873046875,0.0308074951171875
1758447531102789600,1.48478955078125,-0.9459686279296875,-0.313720703125,0.02752685546875
1758447531112761900,1.494761962890625,-0.9541015625,-0.311614990234375,0.0309600830078125
1758447531122734600,1.504734619140625,-0.9574737548828125,-0.3155975341796875,0.0322113037109375
1758447531132706600,1.51470654296875,-0.958465576171875,-0.3139801025390625,0.0330352783203125
1758447531142679800,1.5246796875,-0.953582763671875,-0.3162841796875,0.0352020263671875
1758447531152651500,1.534651611328125,-0.9494171142578125,-0.3147430419921875,0.0348968505859375
1758447531162624500,1.54462451171875,-0.9425048828125,-0.3124237060546875,0.037261962890625
1758447531172596700,1.5545966796875,-0.934814453125,-0.3141632080078125,0.0377197265625
1758447531182569700,1.56456982421875,-0.93408203125,-0.3116912841796875,0.036590576171875
1758447531192541700,1.574541748046875,-0.9391021728515625,-0.3104400634765625,0.0363922119140625
1758447531202513700,1.584513671875,-0.9473419189453125,-0.308746337890625,0.0327606201171875
1758447531212486700,1.594486572265625,-0.9574127197265625,-0.3066864013671875,0.0308990478515625
1758447531222458600,1.604458740234375,-0.9604034423828125,-0.3073883056640625,0.0295867919921875
1758447531232431600,1.614431640625,-0.951507568359375,-0.30908203125,0.0308380126953125
1758447531242403800,1.62440380859375,-0.9393310546875,-0.3104400634765625,0.03460693359375
1758447531252376600,1.63437646484375,-0.9251556396484375,-0.3108367919921875,0.03851318359375
1758447531262348500,1.6443486328125,-0.92034912109375,-0.3156890869140625,0.04412841796875
1758447531272321800,1.65432177734375,-0.9228363037109375,-0.319061279296875,0.046112060546875
1758447531282293500,1.66429345703125,-0.9324188232421875,-0.3193206787109375,0.0488433837890625
1758447531292266500,1.6742666015625,-0.944183349609375,-0.3159027099609375,0.0484161376953125
1758447531302238700,1.68423876953125,-0.9530487060546875,-0.3134918212890625,0.043243408203125
1758447531312211700,1.694211669921875,-0.9552154541015625,-0.312774658203125,0.0417633056640625
1758447531322183700,1.70418359375,-0.9512176513671875,-0.3166961669921875,0.039306640625
1758447531332156700,1.71415673828125,-0.9399871826171875,-0.320831298828125,0.0360565185546875
1758447531342128600,1.724128662109375,-0.925018310546875,-0.32806396484375,0.03814697265625
1758447531352100600,1.7341005859375,-0.91015625,-0.334075927734375,0.0394134521484375
1758447531362073600,1.744073486328125,-0.90399169921875,-0.337432861328125,0.0426177978515625
1758447531372045800,1.7540458984375,-0.903533935546875,-0.337738037109375,0.0465545654296875
1758447531382018600,1.7640185546875,-0.9081268310546875,-0.3334808349609375,0.0465850830078125
1758447531391990800,1.77399072265625,-0.9150543212890625,-0.3260040283203125,0.0409393310546875
1758447531401963800,1.7839638671875,-0.92071533203125,-0.318756103515625,0.042572021484375
1758447531411935500,1.793935546875,-0.925750732421875,-0.313140869140625,0.0440216064453125
1758447531421908700,1.80390869140625,-0.93682861328125,-0.3070831298828125,0.035064697265625
1758447531431880700,1.813880615234375,-0.944488525390625,-0.30810546875,0.02740478515625
1758447531441853700,1.823853759765625,-0.9520263671875,-0.306427001953125,0.0263824462890625
1758447531451825700,1.83382568359375,-0.956634521484375,-0.30377197265625,0.0240020751953125
1758447531461798700,1.843798583984375,-0.9560394287109375,-0.304595947265625,0.019287109375
1758447531471771000,1.85377099609375,-0.9496307373046875,-0.308135986328125,0.010986328125
1758447531481742600,1.86374267578125,-0.944000244140625,-0.3083953857421875,0.00750732421875
1758447531491715600,1.873715576171875,-0.9364776611328125,-0.30816650390625,0.00970458984375
1758447531501687600,1.8836875,-0.9372100830078125,-0.3093109130859375,0.0099945068359375
1758447531511660500,1.89366064453125,-0.93896484375,-0.3087921142578125,0.0074462890625
1758447531521632800,1.9036328125,-0.941864013671875,-0.31024169921875,0.006500244140625
1758447531531605800,1.913605712890625,-0.941436767578125,-0.3122406005859375,0.0041656494140625
1758447531541577500,1.923577392578125,-0.9366455078125,-0.3135528564453125,0.001495361328125
1758447531551550700,1.93355078125,-0.93218994140625,-0.316741943359375,-0.0020751953125
1758447531561522700,1.943522705078125,-0.9281005859375,-0.3152923583984375,0.0037994384765625
1758447531571495400,1.953495361328125,-0.93048095703125,-0.3130950927734375,0.01165771484375
1758447531581467600,1.963467529296875,-0.93389892578125,-0.3125,0.013519287109375
1758447531591440600,1.973440673828125,-0.9387054443359375,-0.3119049072265625,0.013092041015625
1758447531601412600,1.98341259765625,-0.9469146728515625,-0.3100738525390625,0.01531982421875
1758447531611384600,1.993384521484375,-0.9527130126953125,-0.312591552734375,0.0169830322265625
1758447531621357600,2.003357666015625,-0.9479217529296875,-0.313507080078125,0.0196685791015625
1758447531631329500,2.01332958984375,-0.9390411376953125,-0.3141326904296875,0.0255889892578125
1758447531641302500,2.023302490234375,-0.931182861328125,-0.3128662109375,0.025360107421875
1758447531651274800,2.033274658203125,-0.929962158203125,-0.3122406005859375,0.0247650146484375
1758447531661247700,2.043247802734375,-0.9263458251953125,-0.3150787353515625,0.0225372314453125
1758447531671219700,2.0532197265625,-0.9322357177734375,-0.3194580078125,0.0201873779296875
1758447531681192700,2.063192626953125,-0.94500732421875,-0.322357177734375,0.0221099853515625
1758447531691164700,2.07316455078125,-0.95245361328125,-0.320648193359375,0.0254364013671875
1758447531701137700,2.0831376953125,-0.95526123046875,-0.3167724609375,0.0271759033203125
1758447531711109600,2.093109619140625,-0.95281982421875,-0.31402587890625,0.0248870849609375
1758447531721082600,2.10308251953125,-0.9445648193359375,-0.31640625,0.02386474609375
1758447531731054600,2.1130546875,-0.9361724853515625,-0.3142852783203125,0.0205535888671875
1758447531741027600,2.123027587890625,-0.9360198974609375,-0.3134918212890625,0.0230255126953125
1758447531750999800,2.132999755859375,-0.9387054443359375,-0.3145751953125,0.023406982421875
1758447531760971500,2.142971435546875,-0.9396820068359375,-0.31768798828125,0.01788330078125
1758447531770944500,2.152944580078125,-0.934539794921875,-0.3172149658203125,0.01898193359375
1758447531780916700,2.162916748046875,-0.92987060546875,-0.3147430419921875,0.0207977294921875
1758447531790889700,2.1728896484375,-0.930877685546875,-0.3134613037109375,0.0213165283203125
1758447531800861700,2.18286181640625,-0.9365081787109375,-0.314697265625,0.02471923828125
1758447531810834700,2.192834716796875,-0.94781494140625,-0.3130645751953125,0.0283660888671875
1758447531820806700,2.202806640625,-0.9586944580078125,-0.3115692138671875,0.0278472900390625
1758447531830779600,2.212779541015625,-0.9642791748046875,-0.3113250732421875,0.0257415771484375
1758447531840751600,2.222751708984375,-0.95794677734375,-0.3111572265625,0.02154541015625
1758447531850724600,2.232724609375,-0.9482421875,-0.31292724609375,0.0187225341796875
1758447531860696600,2.242696533203125,-0.9369964599609375,-0.318115234375,0.0172576904296875
1758447531870669600,2.252669677734375,-0.9300994873046875,-0.3200836181640625,0.0173187255859375
1758447531880641800,2.262641845703125,-0.9272918701171875,-0.3223876953125,0.0205078125
1758447531890613500,2.272613525390625,-0.927581787109375,-0.3206787109375,0.017333984375
1758447531900586500,2.28258642578125,-0.9265899658203125,-0.316925048828125,0.01904296875
1758447531910558700,2.292558837890625,-0.9340057373046875,-0.3145599365234375,0.025634765625
1758447531920531700,2.30253173828125,-0.9423980712890625,-0.3124847412109375,0.0302276611328125
1758447531930503700,2.312503662109375,-0.948944091796875,-0.31158447265625,0.0309906005859375
1758447531940476700,2.3224765625,-0.9471435546875,-0.312896728515625,0.03204345703125
1758447531950448600,2.33244873046875,-0.942474365234375,-0.31207275390625,0.0325927734375
1758447531960421600,2.342421630859375,-0.937255859375,-0.3138580322265625,0.0308990478515625
1758447531970393600,2.3523935546875,-0.9351806640625,-0.3176422119140625,0.0294189453125
1758447531980366600,2.36236669921875,-0.9349212646484375,-0.3218536376953125,0.02716064453125
1758447531990338600,2.372338623046875,-0.9366455078125,-0.32330322265625,0.0290679931640625
1758447532000311600,2.3823115234375,-0.9351348876953125,-0.3192291259765625,0.030029296875
1758447532010283800,2.39228369140625,-0.932281494140625,-0.3161773681640625,0.030517578125
1758447532020256500,2.402256591796875,-0.9364013671875,-0.3185272216796875,0.0324249267578125
1758447532030228700,2.412228759765625,-0.9429779052734375,-0.3213348388671875,0.0331268310546875
1758447532040200700,2.42220068359375,-0.9429931640625,-0.3187103271484375,0.03271484375
1758447532050173400,2.43217333984375,-0.9405364990234375,-0.3177490234375,0.033721923828125
1758447532060145700,2.442145751953125,-0.9401702880859375,-0.3195953369140625,0.0330657958984375
1758447532070118700,2.45211865234375,-0.9362945556640625,-0.31866455078125,0.0361328125
1758447532080090600,2.462090576171875,-0.933990478515625,-0.317535400390625,0.040008544921875
1758447532090063600,2.472063720703125,-0.934661865234375,-0.320587158203125,0.039794921875
1758447532100035600,2.48203564453125,-0.93365478515625,-0.322723388671875,0.0386505126953125
1758447532110008800,2.4920087890625,-0.928497314453125,-0.3235321044921875,0.0402984619140625
1758447532119980500,2.50198046875,-0.9298248291015625,-0.3228912353515625,0.0401458740234375
1758447532129953500,2.51195361328125,-0.936676025390625,-0.3199615478515625,0.0355987548828125
1758447532139925800,2.52192578125,-0.94561767578125,-0.3155975341796875,0.0308074951171875
1758447532149898500,2.5318984375,-0.950653076171875,-0.312164306640625,0.0281524658203125
1758447532159870700,2.54187060546875,-0.9514617919921875,-0.311370849609375,0.029449462890625
1758447532169843700,2.55184375,-0.9554290771484375,-0.310150146484375,0.0327911376953125
1758447532179815400,2.5618154296875,-0.95404052734375,-0.308258056640625,0.035064697265625
1758447532189787600,2.57178759765625,-0.951995849609375,-0.306732177734375,0.03570556640625
1758447532199760600,2.5817607421875,-0.944610595703125,-0.3088531494140625,0.0325469970703125
1758447532209732600,2.591732666015625,-0.936492919921875,-0.3072357177734375,0.0329742431640625
1758447532219705600,2.60170556640625,-0.9311065673828125,-0.3084564208984375,0.0309600830078125
1758447532229677600,2.611677490234375,-0.92431640625,-0.3118896484375,0.0294189453125
1758447532239650600,2.621650634765625,-0.922119140625,-0.31317138671875,0.03106689453125
1758447532249622500,2.63162255859375,-0.9312591552734375,-0.31024169921875,0.0323638916015625
1758447532259595500,2.641595458984375,-0.942169189453125,-0.313446044921875,0.0322418212890625
1758447532269567500,2.6515673828125,-0.9435272216796875,-0.319427490234375,0.032684326171875
1758447532279540500,2.66154052734375,-0.944122314453125,-0.318084716796875,0.03009033203125
1758447532289512700,2.6715126953125,-0.944122314453125,-0.3173065185546875,0.030120849609375
1758447532299485700,2.681485595703125,-0.94219970703125,-0.3155975341796875,0.0343017578125
1758447532309457700,2.691457763671875,-0.93865966796875,-0.3133087158203125,0.0378570556640625
1758447532319429600,2.7014296875,-0.934814453125,-0.3142547607421875,0.0372314453125
1758447532329402600,2.711402587890625,-0.9338531494140625,-0.3148193359375,0.0358123779296875
1758447532339374600,2.72137451171875,-0.9350128173828125,-0.3111724853515625,0.037139892578125
1758447532349347600,2.73134765625,-0.93798828125,-0.3111419677734375,0.0322723388671875
1758447532359319800,2.74131982421875,-0.9389495849609375,-0.3128204345703125,0.027923583984375
1758447532369292500,2.75129248046875,-0.9425506591796875,-0.31317138671875,0.0301666259765625
1758447532379264500,2.761264404296875,-0.945770263671875,-0.3131103515625,0.0341033935546875
1758447532389237800,2.77123779296875,-0.9482879638671875,-0.3117218017578125,0.03594970703125
1758447532399209500,2.78120947265625,-0.9485321044921875,-0.3125,0.037353515625
1758447532409182500,2.791182373046875,-0.947265625,-0.31085205078125,0.0379486083984375
1758447532419154700,2.80115478515625,-0.9396820068359375,-0.3157501220703125,0.0354461669921875
1758447532429127700,2.811127685546875,-0.92803955078125,-0.31884765625,0.0338287353515625
1758447532439099600,2.821099609375,-0.9202117919921875,-0.324188232421875,0.0367584228515625
1758447532449072600,2.83107275390625,-0.917999267578125,-0.326995849609375,0.0357818603515625
1758447532459044600,2.841044677734375,-0.9207916259765625,-0.32763671875,0.0373077392578125
1758447532469016600,2.8510166015625,-0.92681884765625,-0.3260955810546875,0.0376739501953125
1758447532478989600,2.860989501953125,-0.92913818359375,-0.32720947265625,0.0341796875
1758447532488961800,2.8709619140625,-0.9346160888671875,-0.3258056640625,0.034881591796875
1758447532498934500,2.8809345703125,-0.939605712890625,-0.322418212890625,0.033721923828125
1758447532508906500,2.890906494140625,-0.9425506591796875,-0.3201751708984375,0.032135009765625
1758447532518879700,2.900879638671875,-0.9474945068359375,-0.319580078125,0.0321044921875
1758447532528851500,2.9108515625,-0.95361328125,-0.3195648193359375,0.0312042236328125
1758447532538824400,2.920824462890625,-0.9537811279296875,-0.32061767578125,0.0314178466796875
1758447532548796700,2.930796630859375,-0.949371337890625,-0.320587158203125,0.0322418212890625
1758447532558769700,2.940769775390625,-0.9405517578125,-0.32061767578125,0.0314788818359375
1758447532568741600,2.95074169921875,-0.934661865234375,-0.3187408447265625,0.0291290283203125
1758447532578714600,2.960714599609375,-0.9348297119140625,-0.3167724609375,0.0277862548828125
1758447532588686600,2.9706865234375,-0.9389495849609375,-0.3147735595703125,0.031585693359375
1758447532598658600,2.980658447265625,-0.9400634765625,-0.314483642578125,0.0303497314453125
1758447532608631600,2.990631591796875,-0.9415283203125,-0.3129119873046875,0.0285491943359375
1758447532618603800,3.000603759765625,-0.940155029296875,-0.3133697509765625,0.03076171875
1758447532628576500,3.010576416015625,-0.940399169921875,-0.3139495849609375,0.030426025390625
1758447532638548700,3.020548828125,-0.93829345703125,-0.31402587890625,0.0299530029296875
1758447532648521700,3.030521728515625,-0.9380645751953125,-0.3161773681640625,0.027313232421875
1758447532658493400,3.040493408203125,-0.935394287109375,-0.3152618408203125,0.0284271240234375
1758447532668466700,3.050466796875,-0.9357147216796875,-0.3110809326171875,0.0279998779296875
1758447532678438700,3.060438720703125,-0.9387054443359375,-0.3110198974609375,0.0292205810546875
1758447532688411600,3.07041162109375,-0.940765380859375,-0.3169403076171875,0.0338592529296875
1758447532698383600,3.080383544921875,-0.9388275146484375,-0.318450927734375,0.0380096435546875
1758447532708356600,3.090356689453125,-0.93017578125,-0.317169189453125,0.0406494140625
1758447532718328800,3.100328857421875,-0.9227294921875,-0.32025146484375,0.04107666015625
1758447532728301600,3.110301513671875,-0.9183197021484375,-0.3249664306640625,0.04058837890625
1758447532738273500,3.1202734375,-0.9160003662109375,-0.3229827880859375,0.041290283203125
1758447532748245800,3.130245849609375,-0.9250030517578125,-0.3195343017578125,0.0449981689453125
1758447532758218500,3.140218505859375,-0.9370574951171875,-0.318634033203125,0.0475921630859375
1758447532768190700,3.150190673828125,-0.9445037841796875,-0.31585693359375,0.041656494140625
1758447532778163700,3.160163818359375,-0.94171142578125,-0.3162841796875,0.034393310546875
1758447532788135400,3.170135498046875,-0.934356689453125,-0.3219757080078125,0.0332489013671875
1758447532798108700,3.180108642578125,-0.9290313720703125,-0.3237457275390625,0.029693603515625
1758447532808080600,3.19008056640625,-0.9256134033203125,-0.3249053955078125,0.0298004150390625
1758447532818053600,3.2000537109375,-0.9251251220703125,-0.3267059326171875,0.0294952392578125
1758447532828025600,3.210025634765625,-0.9347686767578125,-0.323028564453125,0.0254974365234375
1758447532837998600,3.21999853515625,-0.9457550048828125,-0.321563720703125,0.024322509765625
1758447532847970600,3.229970458984375,-0.9520111083984375,-0.315887451171875,0.0200347900390625
1758447532857943600,3.239943603515625,-0.9508819580078125,-0.3132476806640625,0.0229644775390625
1758447532867915500,3.24991552734375,-0.944793701171875,-0.3137969970703125,0.0277099609375
1758447532877887500,3.259887451171875,-0.9396209716796875,-0.31378173828125,0.02996826171875
1758447532887860500,3.269860595703125,-0.941375732421875,-0.3110504150390625,0.0313568115234375
1758447532897832700,3.279832763671875,-0.946563720703125,-0.31280517578125,0.0366973876953125
1758447532907805700,3.2898056640625,-0.9487762451171875,-0.3128814697265625,0.0376739501953125
1758447532917777700,3.299777587890625,-0.947540283203125,-0.3126220703125,0.03619384765625
1758447532927750700,3.309750732421875,-0.944305419921875,-0.312530517578125,0.0355224609375
1758447532937722600,3.31972265625,-0.9434051513671875,-0.3121337890625,0.0370025634765625
1758447532947695600,3.329695556640625,-0.9412841796875,-0.3147430419921875,0.033721923828125
1758447532957667600,3.33966748046875,-0.93988037109375,-0.31854248046875,0.0302734375
1758447532967641000,3.34964111328125,-0.935455322265625,-0.3188018798828125,0.029571533203125
1758447532977613300,3.35961328125,-0.92926025390625,-0.3222198486328125,0.0265350341796875
1758447532987586300,3.36958642578125,-0.930877685546875,-0.32366943359375,0.0271759033203125
1758447532997558000,3.37955810546875,-0.9318084716796875,-0.321441650390625,0.027374267578125
1758447533007531300,3.38953125,-0.9298858642578125,-0.3187713623046875,0.0274810791015625
1758447533017503200,3.399503173828125,-0.9346771240234375,-0.3162078857421875,0.0310211181640625
1758447533027475200,3.40947509765625,-0.939727783203125,-0.3157196044921875,0.0283660888671875
1758447533037448200,3.4194482421875,-0.9430694580078125,-0.3133544921875,0.0269927978515625
1758447533047420200,3.429420166015625,-0.948883056640625,-0.312042236328125,0.0277862548828125
1758447533057393400,3.439393310546875,-0.9520416259765625,-0.3117218017578125,0.0294036865234375
1758447533067365000,3.449365234375,-0.9500885009765625,-0.3126678466796875,0.036376953125
1758447533077338000,3.459338134765625,-0.9494171142578125,-0.31781005859375,0.039093017578125
1758447533087310300,3.469310302734375,-0.945098876953125,-0.3187408447265625,0.033966064453125
1758447533097283000,3.479282958984375,-0.94073486328125,-0.3197174072265625,0.0366058349609375
1758447533107255300,3.48925537109375,-0.9359130859375,-0.3191680908203125,0.0352325439453125
1758447533117228300,3.499228271484375,-0.931671142578125,-0.3204193115234375,0.035247802734375
1758447533127200000,3.509199951171875,-0.93084716796875,-0.319488525390625,0.03753662109375
1758447533137173200,3.51917333984375,-0.9302520751953125,-0.316436767578125,0.0317535400390625
1758447533147145200,3.529145263671875,-0.9371185302734375,-0.3153533935546875,0.0291748046875
1758447533157118200,3.5391181640625,-0.9470977783203125,-0.3163604736328125,0.026824951171875
1758447533167090200,3.549090087890625,-0.953277587890625,-0.3148651123046875,0.02691650390625
1758447533177062400,3.5590625,-0.9511566162109375,-0.3135223388671875,0.026702880859375
1758447533187035400,3.569035400390625,-0.946685791015625,-0.3149261474609375,0.02655029296875
1758447533197007000,3.579007080078125,-0.9415740966796875,-0.3128204345703125,0.0284271240234375
1758447533206980400,3.58898046875,-0.9389801025390625,-0.3128204345703125,0.029327392578125
1758447533216952300,3.598952392578125,-0.935546875,-0.31549072265625,0.0290374755859375
1758447533226925000,3.608925048828125,-0.930450439453125,-0.3186492919921875,0.0311279296875
1758447533236897300,3.618897216796875,-0.9321136474609375,-0.3198394775390625,0.0308685302734375
1758447533246870300,3.628870361328125,-0.9340972900390625,-0.317474365234375,0.02960205078125
1758447533256842200,3.63884228515625,-0.933441162109375,-0.3125152587890625,0.0331573486328125
1758447533266815200,3.648815185546875,-0.9414825439453125,-0.3089599609375,0.0393829345703125
1758447533276787200,3.658787109375,-0.951904296875,-0.3036041259765625,0.0455474853515625
1758447533286760400,3.668760498046875,-0.9624481201171875,-0.3021697998046875,0.0443878173828125
1758447533296732200,3.678732177734375,-0.968963623046875,-0.3043060302734375,0.038330078125
1758447533306704400,3.688704345703125,-0.9706268310546875,-0.3039703369140625,0.036773681640625
1758447533316677400,3.698677490234375,-0.962493896484375,-0.3079833984375,0.035125732421875
1758447533326649000,3.708649169921875,-0.959625244140625,-0.3131561279296875,0.031463623046875
1758447533336622300,3.718622314453125,-0.9568939208984375,-0.3133392333984375,0.033203125
1758447533346594300,3.72859423828125,-0.9505767822265625,-0.311981201171875,0.03363037109375
1758447533356567000,3.738567138671875,-0.9398651123046875,-0.3153839111328125,0.0333251953125
1758447533366539300,3.748539306640625,-0.9298248291015625,-0.3158416748046875,0.0390777587890625
1758447533376512300,3.75851220703125,-0.9181060791015625,-0.31488037109375,0.049072265625
1758447533386484200,3.768484130859375,-0.906646728515625,-0.3187103271484375,0.0547027587890625
1758447533396457200,3.778457275390625,-0.8967437744140625,-0.324432373046875,0.056793212890625
1758447533406429200,3.78842919921875,-0.888031005859375,-0.3273162841796875,0.0562896728515625
1758447533416402400,3.79840234375,-0.8825836181640625,-0.3248748779296875,0.0566864013671875
1758447533426374100,3.8083740234375,-0.891204833984375,-0.3235931396484375,0.056304931640625
1758447533436347100,3.81834716796875,-0.90582275390625,-0.3241424560546875,0.0501708984375
1758447533446319400,3.8283193359375,-0.9189605712890625,-0.318572998046875,0.045440673828125
1758447533456291000,3.838291015625,-0.9369354248046875,-0.3174285888671875,0.0458221435546875
1758447533466264300,3.848264404296875,-0.95196533203125,-0.31597900390625,0.0457611083984375
1758447533476236300,3.858236328125,-0.9595489501953125,-0.3130340576171875,0.0463104248046875
1758447533486209300,3.868209228515625,-0.9566650390625,-0.3107147216796875,0.047119140625
1758447533496181200,3.87818115234375,-0.94793701171875,-0.311614990234375,0.0476531982421875
1758447533506154200,3.888154296875,-0.936859130859375,-0.31005859375,0.046539306640625
1758447533516126200,3.898126220703125,-0.930206298828125,-0.3078765869140625,0.0456695556640625
1758447533526099200,3.90809912109375,-0.92938232421875,-0.3101959228515625,0.048553466796875
1758447533536071400,3.918071533203125,-0.9384613037109375,-0.3095245361328125,0.0528717041015625
1758447533546044200,3.928044189453125,-0.9525604248046875,-0.31256103515625,0.0513763427734375
1758447533557262000,3.939261962890625,-0.9618682861328125,-0.3110809326171875,0.0526885986328125
1758447533567235300,3.9492353515625,-0.9618377685546875,-0.3139801025390625,0.0511627197265625
1758447533577207300,3.959207275390625,-0.9593505859375,-0.315704345703125,0.05029296875
1758447533587179300,3.96917919921875,-0.9550323486328125,-0.316497802734375,0.0497589111328125
1758447533597152300,3.97915234375,-0.948028564453125,-0.3165130615234375,0.04852294921875
1758447533607124200,3.989124267578125,-0.9402923583984375,-0.317474365234375,0.0477142333984375
1758447533617097200,3.99909716796875,-0.9345855712890625,-0.317962646484375,0.048736572265625
1758447533627069200,4.009069091796875,-0.931182861328125,-0.3190765380859375,0.0453643798828125
1758447533637042200,4.019042236328125,-0.9302215576171875,-0.317657470703125,0.0449981689453125
1758447533647014100,4.02901416015625,-0.930419921875,-0.31964111328125,0.0458984375
1758447533656987100,4.038987060546875,-0.934478759765625,-0.32025146484375,0.046844482421875
1758447533666959400,4.04895947265625,-0.941009521484375,-0.322418212890625,0.045654296875
1758447533676932400,4.058932373046875,-0.946258544921875,-0.32318115234375,0.04437255859375
1758447533686904000,4.068904052734375,-0.94671630859375,-0.3235321044921875,0.0449981689453125
1758447533696877300,4.078877197265625,-0.9393310546875,-0.32025146484375,0.046966552734375
1758447533706849300,4.088849365234375,-0.9315643310546875,-0.3172454833984375,0.0461578369140625
1758447533716822300,4.098822265625,-0.933380126953125,-0.3177490234375,0.0472564697265625
1758447533726794200,4.108794189453125,-0.9370269775390625,-0.3162384033203125,0.04736328125
1758447533736766500,4.118766357421875,-0.9410552978515625,-0.312896728515625,0.05145263671875
1758447533746739200,4.1287392578125,-0.9473114013671875,-0.3125762939453125,0.05438232421875
1758447533756711200,4.138711181640625,-0.9555816650390625,-0.313385009765625,0.05413818359375
1758447533766684400,4.148684326171875,-0.958343505859375,-0.3172760009765625,0.05389404296875
1758447533776656100,4.15865625,-0.9568328857421875,-0.3217926025390625,0.0501556396484375
1758447533786629000,4.168629150390625,-0.954376220703125,-0.3191375732421875,0.0536651611328125
1758447533796601300,4.178601318359375,-0.955413818359375,-0.317291259765625,0.0588531494140625
1758447533806574300,4.18857421875,-0.9573211669921875,-0.3166961669921875,0.0557403564453125
1758447533816546300,4.19854638671875,-0.95416259765625,-0.314910888671875,0.0475006103515625
1758447533826519300,4.208519287109375,-0.9495086669921875,-0.3143768310546875,0.0467376708984375
1758447533836491300,4.2184912109375,-0.9414215087890625,-0.316009521484375,0.047332763671875
1758447533846464300,4.22846435546875,-0.932586669921875,-0.319732666015625,0.0448150634765625
1758447533856436200,4.238436279296875,-0.9235382080078125,-0.32177734375,0.04302978515625
1758447533866409200,4.2484091796875,-0.9118499755859375,-0.3213043212890625,0.041778564453125
1758447533876381200,4.258381103515625,-0.9056549072265625,-0.3215789794921875,0.0382843017578125
1758447533886354200,4.268354248046875,-0.911529541015625,-0.319061279296875,0.0350341796875
1758447533896326400,4.278326416015625,-0.920745849609375,-0.3132171630859375,0.0367279052734375
1758447533906298000,4.288298095703125,-0.933319091796875,-0.3101959228515625,0.0427093505859375
1758447533916271000,4.29827099609375,-0.94287109375,-0.3122711181640625,0.0484771728515625
1758447533926243300,4.308243408203125,-0.948028564453125,-0.314483642578125,0.0466766357421875
1758447533936216000,4.318216064453125,-0.93963623046875,-0.316192626953125,0.0427703857421875
1758447533946188300,4.328188232421875,-0.9273529052734375,-0.317474365234375,0.043304443359375
1758447533956161300,4.338161376953125,-0.920501708984375,-0.321014404296875,0.0396575927734375
1758447533966133500,4.348133544921875,-0.918243408203125,-0.320953369140625,0.0391845703125
1758447533976106800,4.358106689453125,-0.9229278564453125,-0.319732666015625,0.0416412353515625
1758447533986078500,4.368078369140625,-0.93341064453125,-0.3153076171875,0.039520263671875
1758447533996051500,4.378051513671875,-0.94097900390625,-0.310699462890625,0.037200927734375
1758447534006023700,4.388023681640625,-0.9458770751953125,-0.3103485107421875,0.0402679443359375
1758447534015996700,4.39799658203125,-0.949371337890625,-0.31005859375,0.042572021484375
1758447534025968600,4.40796875,-0.94769287109375,-0.3094329833984375,0.048126220703125
1758447534035940600,4.417940673828125,-0.9414520263671875,-0.3119964599609375,0.0561981201171875
1758447534045913600,4.42791357421875,-0.935150146484375,-0.316650390625,0.056884765625
1758447534055885600,4.437885498046875,-0.92755126953125,-0.319000244140625,0.0540618896484375
1758447534065858600,4.447858642578125,-0.923095703125,-0.3182373046875,0.050445556640625
1758447534075830800,4.457830810546875,-0.921600341796875,-0.3200836181640625,0.0492095947265625
1758447534085803500,4.467803466796875,-0.927001953125,-0.321044921875,0.04241943359375
1758447534095775500,4.477775390625,-0.9351806640625,-0.3189849853515625,0.0422210693359375
1758447534105748700,4.487748779296875,-0.9469146728515625,-0.3173828125,0.0463104248046875
1758447534115720400,4.497720458984375,-0.9581298828125,-0.320404052734375,0.042449951171875
1758447534125693400,4.507693359375,-0.9618072509765625,-0.3206329345703125,0.0406494140625
1758447534135665700,4.517665771484375,-0.9571990966796875,-0.3179168701171875,0.042755126953125
1758447534145638700,4.527638671875,-0.95233154296875,-0.3181304931640625,0.043548583984375
1758447534155610600,4.537610595703125,-0.9461822509765625,-0.3184051513671875,0.0404510498046875
1758447534165583600,4.54758349609375,-0.9413909912109375,-0.317962646484375,0.0375518798828125
1758447534175555600,4.5575556640625,-0.9368438720703125,-0.318572998046875,0.0384674072265625
1758447534185527600,4.567527587890625,-0.929443359375,-0.31982421875,0.04327392578125
1758447534195500500,4.57750048828125,-0.9294891357421875,-0.3179168701171875,0.0449371337890625
1758447534205472800,4.58747265625,-0.927459716796875,-0.3163299560546875,0.04345703125
1758447534215445500,4.597445556640625,-0.92535400390625,-0.3164825439453125,0.0472412109375
1758447534225417700,4.607417724609375,-0.9310760498046875,-0.3178863525390625,0.0489044189453125
1758447534235390700,4.617390625,-0.9361419677734375,-0.3162384033203125,0.0478973388671875
1758447534245362400,4.627362548828125,-0.9452056884765625,-0.3162078857421875,0.04473876953125
1758447534255335700,4.637335693359375,-0.9449005126953125,-0.31292724609375,0.0424652099609375
1758447534265307600,4.6473076171875,-0.940277099609375,-0.3102569580078125,0.0400238037109375
1758447534275280600,4.65728076171875,-0.9350433349609375,-0.315521240234375,0.03814697265625
1758447534285252600,4.667252685546875,-0.9283447265625,-0.3206939697265625,0.0357818603515625
1758447534295225600,4.6772255859375,-0.928131103515625,-0.3229217529296875,0.033843994140625
1758447534305197800,4.68719775390625,-0.92828369140625,-0.3218536376953125,0.032073974609375
1758447534315169500,4.69716943359375,-0.92034912109375,-0.321258544921875,0.03265380859375
1758447534325142500,4.707142578125,-0.91680908203125,-0.3216705322265625,0.035186767578125
1758447534335114800,4.71711474609375,-0.9141693115234375,-0.3221588134765625,0.0357513427734375
1758447534345087500,4.72708740234375,-0.9155120849609375,-0.3212738037109375,0.0360565185546875
1758447534355059700,4.737059814453125,-0.9187774658203125,-0.31744384765625,0.039886474609375
1758447534365032700,4.74703271484375,-0.9246368408203125,-0.3168182373046875,0.039764404296875
1758447534375004400,4.75700439453125,-0.9344940185546875,-0.3156280517578125,0.036224365234375
1758447534384977700,4.766977783203125,-0.938812255859375,-0.3138885498046875,0.0318756103515625
1758447534394949600,4.77694970703125,-0.938812255859375,-0.3117218017578125,0.030609130859375
1758447534404922400,4.78692236328125,-0.9409637451171875,-0.3148040771484375,0.0355987548828125
1758447534414894600,4.79689453125,-0.9427490234375,-0.317138671875,0.037872314453125
1758447534424867600,4.80686767578125,-0.9400634765625,-0.315460205078125,0.042755126953125
1758447534434839600,4.816839599609375,-0.93304443359375,-0.31634521484375,0.046051025390625
1758447534444811500,4.8268115234375,-0.9255523681640625,-0.319061279296875,0.0468292236328125
1758447534454784500,4.836784423828125,-0.9164886474609375,-0.3232269287109375,0.0443572998046875
1758447534464756500,4.846756591796875,-0.9205474853515625,-0.3248138427734375,0.0459442138671875
1758447534474729500,4.8567294921875,-0.929962158203125,-0.326324462890625,0.0421295166015625
1758447534484701700,4.86670166015625,-0.934814453125,-0.32513427734375,0.0357208251953125
1758447534494674700,4.8766748046875,-0.9441680908203125,-0.32183837890625,0.03607177734375
1758447534504646700,4.886646728515625,-0.954315185546875,-0.3209228515625,0.035064697265625
1758447534514619600,4.89661962890625,-0.9559173583984375,-0.318389892578125,0.033233642578125
1758447534524591600,4.906591552734375,-0.94696044921875,-0.31939697265625,0.0282135009765625
1758447534534564600,4.916564697265625,-0.9368743896484375,-0.32330322265625,0.0291900634765625
1758447534544536600,4.92653662109375,-0.9339599609375,-0.3224945068359375,0.0286865234375
1758447534554509600,4.936509521484375,-0.9383392333984375,-0.323455810546875,0.0338134765625
1758447534564481500,4.9464814453125,-0.947265625,-0.326385498046875,0.041748046875
1758447534574454500,4.95645458984375,-0.95318603515625,-0.3287811279296875,0.0538330078125
1758447534584426800,4.9664267578125,-0.943023681640625,-0.3350830078125,0.0475921630859375
1758447534594398500,4.9763984375,-0.9500274658203125,-0.3282623291015625,0.0405426025390625
1758447534604371500,4.986371337890625,-0.9539794921875,-0.325897216796875,0.0359039306640625
1758447534614343700,4.99634375,-0.9598846435546875,-0.32647705078125,0.0447540283203125
1758447534624316700,5.006316650390625,-0.94927978515625,-0.314483642578125,0.04510498046875
1758447534634288600,5.01628857421875,-0.9287567138671875,-0.3124847412109375,0.0471954345703125
1758447534644261600,5.02626171875,-0.90301513671875,-0.311981201171875,0.025054931640625
1758447534654233600,5.036233642578125,-0.8940582275390625,-0.306793212890625,0.00189208984375
1758447534664206600,5.04620654296875,-0.908172607421875,-0.2946014404296875,0.015106201171875
1758447534674178600,5.056178466796875,-0.9289093017578125,-0.297271728515625,0.071319580078125
1758447534684151600,5.066151611328125,-0.9425811767578125,-0.2877655029296875,0.008148193359375
1758447534694123500,5.07612353515625,-0.9600830078125,-0.266998291015625,-0.013427734375
1758447534704096500,5.086096435546875,-0.9696197509765625,-0.2541656494140625,-0.0213623046875
1758447534714068700,5.09606884765625,-0.9950714111328125,-0.2494659423828125,-0.0514678955078125
1758447534724040400,5.10604052734375,-1.0218048095703125,-0.2411346435546875,-0.061676025390625
1758447534734013400,5.116013427734375,-1.030364990234375,-0.24072265625,-0.063934326171875
1758447534743985700,5.125985595703125,-1.0247039794921875,-0.252166748046875,-0.0570220947265625
1758447534753958700,5.135958740234375,-1.0067291259765625,-0.272430419921875,-0.04217529296875
1758447534763930600,5.1459306640625,-0.9813385009765625,-0.29351806640625,-0.0283660888671875
1758447534773903600,5.155903564453125,-0.95562744140625,-0.3040313720703125,-0.027191162109375
1758447534783875600,5.16587548828125,-0.9310760498046875,-0.3098602294921875,-0.0383758544921875
1758447534793848600,5.1758486328125,-0.903350830078125,-0.3144073486328125,-0.0522613525390625
1758447534803820500,5.185820556640625,-0.8793487548828125,-0.318023681640625,-0.06195068359375
1758447534813793500,5.19579345703125,-0.879608154296875,-0.3178558349609375,-0.0711822509765625
1758447534823765500,5.205765625,-0.8882598876953125,-0.311492919921875,-0.078704833984375
1758447534833738500,5.215738525390625,-0.9022064208984375,-0.288177490234375,-0.0913543701171875
1758447534843710700,5.225710693359375,-0.91815185546875,-0.259429931640625,-0.1058502197265625
1758447534853682400,5.235682373046875,-0.9245758056640625,-0.242156982421875,-0.1181640625
1758447534863655700,5.24565576171875,-0.9102020263671875,-0.230133056640625,-0.1170654296875
1758447534873627600,5.255627685546875,-0.9016265869140625,-0.2505340576171875,-0.128265380859375
1758447534883600600,5.2656005859375,-0.887908935546875,-0.2646942138671875,-0.1141815185546875
1758447534893572600,5.275572509765625,-0.868621826171875,-0.2793426513671875,-0.099853515625
1758447534903545600,5.285545654296875,-0.8478240966796875,-0.2891387939453125,-0.094696044921875
1758447534913517800,5.295517822265625,-0.8403472900390625,-0.288909912109375,-0.0973052978515625
1758447534923490600,5.305490478515625,-0.852996826171875,-0.2832794189453125,-0.1064300537109375
1758447534933462500,5.315462646484375,-0.8590087890625,-0.2738037109375,-0.115875244140625
1758447534943435800,5.325435791015625,-0.8514556884765625,-0.2611236572265625,-0.11444091796875
1758447534953407500,5.335407470703125,-0.848724365234375,-0.2490081787109375,-0.115966796875
1758447534963379500,5.34537939453125,-0.897491455078125,-0.24072265625,-0.1405181884765625
1758447534973351200,5.35535107421875,-0.90362548828125,-0.2301483154296875,-0.1667327880859375
1758447534983324400,5.365324462890625,-1.0340118408203125,-0.212188720703125,-0.093292236328125
1758447534993296400,5.37529638671875,-1.147613525390625,-0.274658203125,0.3319244384765625
1758447535003268400,5.385268310546875,-1.1186065673828125,-0.4207305908203125,0.41778564453125
1758447535013241300,5.395241455078125,-1.1271514892578125,-0.5529327392578125,0.3733367919921875
1758447535023213300,5.40521337890625,-0.95050048828125,-0.4922027587890625,0.1075897216796875
1758447535033186600,5.4151865234375,-0.7324676513671875,-0.33489990234375,-0.1464691162109375
1758447535043158300,5.425158203125,-0.6606292724609375,-0.2728118896484375,-0.2017822265625
1758447535053131300,5.43513134765625,-0.6847686767578125,-0.2353057861328125,-0.22174072265625
1758447535063103500,5.445103515625,-0.818023681640625,-0.2213287353515625,-0.3232421875
1758447535073076200,5.455076171875,-0.964935302734375,-0.2523956298828125,-0.37310791015625
1758447535083048400,5.46504833984375,-0.9025115966796875,-0.1990966796875,-0.150115966796875
1758447535093021400,5.475021484375,-0.895416259765625,-0.2140655517578125,-0.1519012451171875
1758447535102993200,5.4849931640625,-0.8253631591796875,-0.198089599609375,-0.2332611083984375
1758447535112966400,5.49496630859375,-0.800933837890625,-0.095550537109375,-0.2364349365234375
1758447535122938400,5.5049384765625,-0.8397369384765625,-0.0890045166015625,-0.2329559326171875
1758447535132910300,5.514910400390625,-0.8847808837890625,-0.078460693359375,-0.3600311279296875
1758447535142883300,5.52488330078125,-0.93865966796875,-0.08148193359375,-0.460906982421875
1758447535152855300,5.534855224609375,-1.0009307861328125,-0.1070709228515625,-0.540496826171875
1758447535162828500,5.54482861328125,-1.007476806640625,-0.0789337158203125,-0.554351806640625
1758447535172800300,5.55480029296875,-0.9404296875,-0.0804595947265625,-0.3917694091796875
1758447535182773200,5.564773193359375,-0.876739501953125,-0.1428375244140625,-0.2256622314453125
1758447535192745500,5.574745361328125,-0.8559112548828125,-0.37939453125,-0.1311187744140625
1758447535202718200,5.58471826171875,-0.791595458984375,-0.4366302490234375,-0.0736083984375
1758447535212690400,5.5946904296875,-0.655120849609375,-0.3051910400390625,-0.0778045654296875
1758447535222663400,5.604663330078125,-0.491119384765625,-0.1864166259765625,-0.0950927734375
1758447535232635100,5.61463525390625,-0.434295654296875,-0.15997314453125,-0.0017242431640625
1758447535242608400,5.6246083984375,-0.42474365234375,-0.157562255859375,0.149261474609375
1758447535252580400,5.634580322265625,-0.4051055908203125,-0.2594451904296875,0.1847076416015625
1758447535262552300,5.64455224609375,-0.6263580322265625,-0.365203857421875,0.268585205078125
1758447535272525300,5.654525390625,-0.817138671875,0.01422119140625,-0.1366424560546875
1758447535282497300,5.664497314453125,-0.6400909423828125,0.1456298828125,-0.120635986328125
1758447535292470500,5.674470458984375,-0.62103271484375,-0.073883056640625,-0.0905914306640625
1758447535302442200,5.684442138671875,-0.63525390625,-0.2297515869140625,-0.138641357421875
1758447535312415500,5.69441552734375,-0.65966796875,-0.2385711669921875,-0.18212890625
1758447535322387500,5.704387451171875,-0.7130279541015625,-0.1679840087890625,-0.180694580078125
1758447535332360200,5.714360107421875,-0.7437896728515625,-0.0998992919921875,-0.1777191162109375
1758447535342332400,5.72433251953125,-0.77978515625,-0.0485382080078125,-0.1705169677734375
1758447535352305400,5.734305419921875,-0.7903289794921875,0.010955810546875,-0.1353912353515625
1758447535362277400,5.74427734375,-0.89886474609375,0.112213134765625,-0.0917510986328125
1758447535372250400,5.75425048828125,-0.9180450439453125,0.1953125,-0.0093994140625
1758447535382222300,5.764222412109375,-0.868804931640625,0.203338623046875,-0.0342254638671875
1758447535392194300,5.7741943359375,-0.87469482421875,0.1479949951171875,-0.076263427734375
1758447535402167300,5.784167236328125,-0.8922576904296875,0.0984649658203125,-0.0810699462890625
1758447535412139500,5.794139404296875,-0.877838134765625,0.0731964111328125,-0.13873291015625
1758447535422112500,5.804112548828125,-0.84429931640625,0.05645751953125,-0.1852874755859375
1758447535432084200,5.814084228515625,-0.81884765625,0.0400238037109375,-0.199615478515625
1758447535442057500,5.824057373046875,-0.7923736572265625,0.05645751953125,-0.201873779296875
1758447535452029400,5.834029541015625,-0.753875732421875,0.1087188720703125,-0.2162933349609375
1758447535462002200,5.844002197265625,-0.7695159912109375,0.1517791748046875,-0.237030029296875
1758447535471974400,5.853974365234375,-0.8341827392578125,0.163482666015625,-0.2817840576171875
1758447535481947400,5.863947509765625,-0.8844757080078125,0.1659393310546875,-0.358154296875
1758447535491919400,5.87391943359375,-0.913665771484375,0.15283203125,-0.4424591064453125
1758447535501892400,5.883892333984375,-0.923919677734375,0.1121826171875,-0.5230560302734375
1758447535511864300,5.8938642578125,-0.90374755859375,0.0904693603515625,-0.56292724609375
1758447535521836300,5.903836181640625,-0.8420257568359375,0.1176910400390625,-0.576629638671875
1758447535531809300,5.913809326171875,-0.7781219482421875,0.1616058349609375,-0.56597900390625
1758447535541781500,5.923781494140625,-0.767730712890625,0.13641357421875,-0.610137939453125
1758447535551754200,5.933754150390625,-0.771087646484375,0.1227569580078125,-0.6417236328125
1758447535561726200,5.943726318359375,-0.739837646484375,0.140533447265625,-0.7081298828125
1758447535571699500,5.953699462890625,-0.7190093994140625,0.1451416015625,-0.8073577880859375
1758447535581671200,5.963671142578125,-0.7034759521484375,0.1141204833984375,-0.8803253173828125
1758447535591644200,5.97364404296875,-0.6683807373046875,0.0913848876953125,-0.9200897216796875
1758447535601616400,5.983616455078125,-0.604248046875,0.1108856201171875,-0.943817138671875
1758447535611589400,5.99358935546875,-0.5765838623046875,0.1205902099609375,-0.98406982421875
1758447535621561300,6.003561279296875,-0.6018524169921875,0.133697509765625,-1.0343475341796875
1758447535631534300,6.013534423828125,-0.6174468994140625,0.175048828125,-1.0711669921875
1758447535641506600,6.023506591796875,-0.6050262451171875,0.205230712890625,-1.090423583984375
1758447535651478300,6.033478271484375,-0.5702362060546875,0.1961669921875,-1.112579345703125
1758447535661451300,6.043451171875,-0.5299530029296875,0.195770263671875,-1.1077728271484375
1758447535671423500,6.053423583984375,-0.4791107177734375,0.233642578125,-1.074554443359375
1758447535681396200,6.063396240234375,-0.414886474609375,0.2838134765625,-1.05535888671875
1758447535691368400,6.073368408203125,-0.3732147216796875,0.303466796875,-1.0657501220703125
1758447535701341400,6.083341552734375,-0.3290863037109375,0.2926483154296875,-1.0957183837890625
1758447535711313200,6.093313232421875,-0.2767181396484375,0.2887420654296875,-1.1328582763671875
1758447535721286400,6.103286376953125,-0.2448577880859375,0.310394287109375,-1.1781463623046875
1758447535731258400,6.11325830078125,-0.2314453125,0.361785888671875,-1.211456298828125
1758447535741231400,6.1232314453125,-0.2283935546875,0.426361083984375,-1.22943115234375
1758447535751203300,6.133203369140625,-0.2608489990234375,0.455230712890625,-1.240325927734375
1758447535761176300,6.14317626953125,-0.27783203125,0.488800048828125,-1.2615814208984375
1758447535771148500,6.1531484375,-0.2393951416015625,0.56121826171875,-1.265167236328125
1758447535781120300,6.163120361328125,-0.184906005859375,0.6102752685546875,-1.27490234375
1758447535791093200,6.17309326171875,-0.1674652099609375,0.6230010986328125,-1.3013763427734375
1758447535801065500,6.1830654296875,-0.13861083984375,0.6221771240234375,-1.3353271484375
1758447535811038200,6.1930380859375,-0.055816650390625,0.6444549560546875,-1.3939971923828125
1758447535821010400,6.203010498046875,0.0142364501953125,0.6728515625,-1.4307403564453125
1758447535830983400,6.2129833984375,0.0489044189453125,0.6892852783203125,-1.41943359375
1758447535840955100,6.222955078125,0.077850341796875,0.6917877197265625,-1.3818511962890625
1758447535850928400,6.232928466796875,0.1148223876953125,0.6600494384765625,-1.369140625
1758447535860900400,6.242900390625,0.1436004638671875,0.6055755615234375,-1.4096832275390625
1758447535870873300,6.252873291015625,0.1457061767578125,0.52691650390625,-1.469451904296875
1758447535880845300,6.26284521484375,0.148895263671875,0.49041748046875,-1.5023651123046875
1758447535890817300,6.2728173828125,0.2352447509765625,0.5568084716796875,-1.439422607421875
1758447535900790500,6.28279052734375,0.3330841064453125,0.5880889892578125,-1.38348388671875
1758447535910762200,6.29276220703125,0.363861083984375,0.5437774658203125,-1.3699798583984375
1758447535920735200,6.3027353515625,0.402374267578125,0.4938507080078125,-1.2786407470703125
1758447535930707500,6.31270751953125,0.34844970703125,0.503082275390625,-1.230377197265625
1758447535940680200,6.32268017578125,0.239959716796875,0.5647735595703125,-1.1917572021484375
1758447535950652400,6.33265234375,0.2132720947265625,0.5099334716796875,-1.188629150390625
1758447535960625400,6.34262548828125,-0.00140380859375,0.444183349609375,-1.29730224609375
1758447535970597600,6.35259765625,-0.118927001953125,0.3923492431640625,-1.232269287109375
1758447535980571000,6.36257080078125,-0.129486083984375,0.37921142578125,-1.1053619384765625
1758447535990542800,6.37254296875,-0.057220458984375,0.3932342529296875,-1.0118255615234375
1758447536000515800,6.382515869140625,-0.042327880859375,0.39385986328125,-0.9792633056640625
1758447536010487800,6.39248779296875,-0.164703369140625,0.40130615234375,-0.9738616943359375
1758447536020459800,6.402459716796875,-0.2780609130859375,0.3277130126953125,-0.979461669921875
1758447536030433000,6.41243310546875,-0.18646240234375,0.1967620849609375,-0.892669677734375
1758447536040404700,6.42240478515625,-0.0724639892578125,0.169952392578125,-0.7886199951171875
1758447536050377700,6.432377685546875,0.003692626953125,0.25390625,-0.643035888671875
1758447536060350000,6.442349853515625,0.0599517822265625,0.3195037841796875,-0.4927978515625
1758447536070322700,6.45232275390625,0.0692901611328125,0.3189849853515625,-0.34814453125
1758447536080295000,6.462294921875,0.0339508056640625,0.310455322265625,-0.3294219970703125
1758447536090268000,6.472267822265625,0.0476226806640625,0.3114471435546875,-0.310699462890625
1758447536100240000,6.482239990234375,0.0523529052734375,0.3116455078125,-0.2946624755859375
1758447536110212900,6.492212890625,0.05584716796875,0.4095916748046875,-0.1438751220703125
1758447536120184800,6.502184814453125,0.0397796630859375,0.416595458984375,-0.2089080810546875
1758447536130156800,6.51215673828125,-0.0084075927734375,0.3414306640625,-0.3548431396484375
1758447536140129800,6.5221298828125,0.029266357421875,0.2031097412109375,-0.54779052734375
1758447536150102000,6.53210205078125,0.0407867431640625,0.1267547607421875,-0.5962982177734375
1758447536160075000,6.542074951171875,0.0101470947265625,0.1837921142578125,-0.6887664794921875
1758447536170046700,6.552046630859375,0.0009765625,0.2353668212890625,-0.769439697265625
1758447536180020000,6.56202001953125,-0.0050201416015625,0.164947509765625,-0.864654541015625
1758447536189992000,6.571991943359375,-0.0361785888671875,0.1336212158203125,-0.982421875
1758447536199964700,6.581964599609375,-0.057586669921875,0.09674072265625,-1.1643218994140625
1758447536209937000,6.59193701171875,-0.0210418701171875,0.180877685546875,-1.1899871826171875
1758447536219910000,6.601909912109375,-0.0493011474609375,0.2992401123046875,-1.041748046875
1758447536229881900,6.6118818359375,-0.112060546875,0.2331390380859375,-1.0413970947265625
1758447536239854800,6.621854736328125,0.121978759765625,-0.010284423828125,-0.966064453125
1758447536249826800,6.631826904296875,-0.2096405029296875,-0.167144775390625,-1.448150634765625
1758447536259798800,6.641798828125,-0.5157318115234375,-0.0665740966796875,-1.549285888671875
1758447536269771800,6.651771728515625,-0.1743011474609375,-0.04412841796875,-1.3430633544921875
1758447536279744000,6.661743896484375,-0.112640380859375,0.0240020751953125,-1.131134033203125
1758447536289717000,6.671717041015625,-0.164031982421875,0.02490234375,-1.065673828125
1758447536299688700,6.681688720703125,-0.2761077880859375,0.0783233642578125,-1.0653076171875
1758447536309662000,6.691661865234375,-0.315032958984375,0.1379241943359375,-1.0696868896484375
1758447536319634000,6.701634033203125,-0.31304931640625,0.1245880126953125,-0.999267578125
1758447536329606700,6.711606689453125,-0.2099151611328125,0.1036529541015625,-0.965179443359375
1758447536339579000,6.721578857421875,0.0061798095703125,0.07366943359375,-0.9682464599609375
1758447536349551900,6.7315517578125,0.0612945556640625,0.2268524169921875,-0.8741302490234375
1758447536359523800,6.74152392578125,-0.0949554443359375,0.4427337646484375,-0.7957763671875
1758447536369496800,6.751496826171875,-0.127593994140625,0.657012939453125,-0.6994171142578125
1758447536379468800,6.76146875,-0.21514892578125,0.7744293212890625,-0.5728912353515625
1758447536389440800,6.771440673828125,-0.2042083740234375,0.8094482421875,-0.521942138671875
1758447536399413800,6.781413818359375,-0.1090850830078125,0.956817626953125,-0.440093994140625
1758447536409386000,6.791385986328125,-0.047210693359375,1.01287841796875,-0.5600128173828125
1758447536419359000,6.80135888671875,-0.007598876953125,0.87518310546875,-0.6172027587890625
1758447536429331000,6.8113310546875,0.0272979736328125,0.746734619140625,-0.622711181640625
1758447536439304000,6.821303955078125,-0.0302581787109375,0.6608123779296875,-0.73876953125
1758447536449276000,6.83127587890625,-0.1263427734375,0.606903076171875,-1.0382232666015625
1758447536459249000,6.841248779296875,-0.1556549072265625,0.525421142578125,-1.0679168701171875
1758447536469220900,6.851220947265625,-0.1213226318359375,0.4823150634765625,-0.92425537109375
1758447536479193900,6.86119384765625,-0.0397796630859375,0.491668701171875,-0.8300628662109375
1758447536489165800,6.871165771484375,-0.0187225341796875,0.4095001220703125,-0.7740020751953125
1758447536499137800,6.8811376953125,-0.0008697509765625,0.3790740966796875,-0.861053466796875
1758447536509111000,6.891111083984375,0.019744873046875,0.3898773193359375,-0.9420318603515625
1758447536519082800,6.901082763671875,0.053375244140625,0.4070587158203125,-0.9540557861328125
1758447536529055700,6.9110556640625,0.07562255859375,0.4630584716796875,-0.893585205078125
1758447536539028000,6.921028076171875,0.0874786376953125,0.5561370849609375,-0.772430419921875
1758447536549000700,6.931000732421875,0.0420074462890625,0.6731719970703125,-0.6698150634765625
1758447536558973000,6.940972900390625,-0.0011444091796875,0.7275848388671875,-0.608367919921875
1758447536568946000,6.95094580078125,-0.04327392578125,0.752471923828125,-0.5748138427734375
1758447536578917600,6.960917724609375,-0.1159515380859375,0.8199005126953125,-0.506378173828125
1758447536588891000,6.970890869140625,-0.1247711181640625,0.857330322265625,-0.4832916259765625
1758447536598862800,6.98086279296875,-0.1384124755859375,0.8426055908203125,-0.566497802734375
1758447536608835800,6.9908359375,-0.09576416015625,0.8192901611328125,-0.722076416015625
1758447536618807800,7.000807861328125,-0.08905029296875,0.747467041015625,-0.847259521484375
1758447536628779800,7.01077978515625,-0.120452880859375,0.600341796875,-0.8972015380859375
1758447536638753000,7.0207529296875,-0.1109466552734375,0.6412353515625,-0.7880706787109375
1758447536648724700,7.030724853515625,-0.1013336181640625,0.672271728515625,-0.6714324951171875
1758447536658697700,7.04069775390625,-0.0721893310546875,0.6820068359375,-0.573974609375
1758447536668670000,7.050669921875,-0.0277099609375,0.675201416015625,-0.4702301025390625
1758447536678642700,7.060642578125,0.03546142578125,0.6909332275390625,-0.4143218994140625
1758447536688615000,7.070614990234375,0.081787109375,0.7347412109375,-0.4133148193359375
1758447536698588000,7.080587890625,0.0854339599609375,0.753204345703125,-0.4385528564453125
1758447536708560000,7.090559814453125,0.1075897216796875,0.7384033203125,-0.4381103515625
1758447536718532900,7.100532958984375,0.1856536865234375,0.7219390869140625,-0.4039154052734375
1758447536728504800,7.1105048828125,0.277191162109375,0.7069091796875,-0.397857666015625
1758447536738477800,7.120477783203125,0.3280792236328125,0.752044677734375,-0.435760498046875
1758447536748449800,7.13044970703125,0.2698974609375,0.8654327392578125,-0.45806884765625
1758447536758422000,7.140422119140625,0.1725616455078125,0.9774169921875,-0.4551849365234375
1758447536768395000,7.15039501953125,0.088470458984375,1.0360870361328125,-0.4257659912109375
1758447536778366700,7.16036669921875,0.034759521484375,1.03411865234375,-0.3700103759765625
1758447536788340000,7.170340087890625,0.0589599609375,1.003448486328125,-0.3214569091796875
1758447536798312000,7.18031201171875,0.0685882568359375,0.9756011962890625,-0.2830352783203125
1758447536808284700,7.19028466796875,0.0623931884765625,0.9165802001953125,-0.2617645263671875
1758447536818257000,7.2002568359375,0.0571136474609375,0.83416748046875,-0.232177734375
1758447536828230000,7.21022998046875,0.039947509765625,0.7700653076171875,-0.174102783203125
1758447536838201900,7.220201904296875,-0.00714111328125,0.674591064453125,-0.113677978515625
1758447536848174800,7.2301748046875,-0.0479888916015625,0.514892578125,-0.071014404296875
1758447536858146800,7.240146728515625,-0.0261688232421875,0.3705596923828125,-0.0607452392578125
1758447536868120000,7.2501201171875,0.0237274169921875,0.2789459228515625,-0.056610107421875
1758447536878091800,7.260091796875,0.0616302490234375,0.2178802490234375,-0.0482330322265625
1758447536888064000,7.27006396484375,0.0963592529296875,0.18505859375,-0.04681396484375
1758447536898037000,7.280037109375,0.0987091064453125,0.160797119140625,-0.0392303466796875
1758447536908008700,7.2900087890625,0.0579833984375,0.157318115234375,-0.0180816650390625
1758447536917982000,7.29998193359375,0.0864410400390625,0.1519775390625,-0.008270263671875
1758447536927954000,7.309953857421875,0.0871429443359375,0.163116455078125,0.0114288330078125
1758447536937926700,7.3199267578125,0.1116943359375,0.424102783203125,0.008636474609375
1758447536947899000,7.32989892578125,0.2818603515625,2.417755126953125,0.441864013671875
1758447536957871900,7.339871826171875,0.103240966796875,3.2084197998046875,0.610870361328125
1758447536967844000,7.349843994140625,0.1715545654296875,2.9155426025390625,-0.031829833984375
1758447536977817000,7.359817138671875,0.3369598388671875,3.10125732421875,-0.370635986328125
1758447536987789000,7.3697890625,-0.01678466796875,3.1083984375,-0.404571533203125
1758447536997762300,7.37976220703125,-0.496734619140625,2.6843719482421875,-0.1732940673828125
1758447537007734000,7.389734130859375,-0.8490447998046875,1.8474578857421875,-0.0495452880859375
1758447537017706200,7.399706298828125,-0.854400634765625,1.171630859375,-0.0613250732421875
1758447537027679200,7.40967919921875,-0.7158050537109375,0.791961669921875,0.0086822509765625
1758447537037651000,7.41965087890625,-0.660552978515625,0.5508575439453125,0.1027984619140625
1758447537047624200,7.429624267578125,-0.6741790771484375,0.31463623046875,0.2693023681640625
1758447537057596200,7.43959619140625,-0.509002685546875,0.290924072265625,0.34747314453125
1758447537067569000,7.44956884765625,-0.321044921875,0.430145263671875,0.3988189697265625
1758447537077541000,7.459541015625,-0.141082763671875,0.63726806640625,0.5203857421875
1758447537087514000,7.46951416015625,-0.0244598388671875,0.8429107666015625,0.6539306640625
1758447537097486000,7.479486083984375,0.13348388671875,0.9889068603515625,0.69781494140625
1758447537107459000,7.489458984375,0.2586669921875,1.0684967041015625,0.7155609130859375
1758447537117431000,7.49943115234375,0.3041534423828125,1.1094818115234375,0.7062835693359375
1758447537127404300,7.509404296875,0.2797393798828125,1.095001220703125,0.6873931884765625
1758447537137376000,7.5193759765625,0.2325592041015625,1.001556396484375,0.5805511474609375
1758447537147348200,7.52934814453125,0.156036376953125,0.917144775390625,0.4446868896484375
1758447537157321200,7.5393212890625,0.07177734375,0.90234375,0.38238525390625
1758447537167293200,7.549293212890625,0.014617919921875,0.9130706787109375,0.349456787109375
1758447537177266200,7.55926611328125,-0.0278167724609375,0.9445343017578125,0.33746337890625
1758447537187238100,7.569238037109375,-0.0619354248046875,0.971038818359375,0.3270263671875
1758447537197211100,7.579211181640625,-0.0792388916015625,0.986053466796875,0.3023223876953125
1758447537207183000,7.58918310546875,-0.10601806640625,0.9863128662109375,0.2693023681640625
1758447537217156000,7.599156005859375,-0.121337890625,0.979583740234375,0.2509765625
1758447537227128000,7.609128173828125,-0.1193695068359375,0.9635467529296875,0.22625732421875
1758447537237101000,7.61910107421875,-0.1179962158203125,0.96478271484375,0.195709228515625
1758447537247073300,7.6290732421875,-0.148468017578125,1.0029296875,0.2021026611328125
1758447537257046300,7.63904638671875,-0.149566650390625,1.007049560546875,0.1895599365234375
1758447537267018000,7.64901806640625,-0.13983154296875,0.99542236328125,0.178070068359375
1758447537276990200,7.658990234375,-0.124908447265625,0.985626220703125,0.1677398681640625
1758447537286963000,7.668962890625,-0.117645263671875,0.9719390869140625,0.1666259765625
1758447537296935200,7.67893505859375,-0.123565673828125,0.962921142578125,0.1776123046875
1758447537306908200,7.688908203125,-0.1250457763671875,0.9582672119140625,0.183746337890625
1758447537316880000,7.6988798828125,-0.122344970703125,0.9516448974609375,0.1796112060546875
1758447537326853000,7.70885302734375,-0.122955322265625,0.9434661865234375,0.1764373779296875
1758447537336825000,7.7188251953125,-0.112213134765625,0.946258544921875,0.1768341064453125
1758447537346798000,7.728798095703125,-0.1194000244140625,0.9498291015625,0.203155517578125
1758447537356770000,7.73877001953125,-0.1147308349609375,0.9540557861328125,0.2307586669921875
1758447537366743000,7.748742919921875,-0.1057586669921875,0.95361328125,0.2470855712890625
1758447537376715300,7.75871533203125,-0.09466552734375,0.9566802978515625,0.2746734619140625
1758447537386688000,7.76868798828125,-0.0634765625,0.9559783935546875,0.2886199951171875
1758447537396660000,7.778659912109375,-0.03338623046875,0.9599456787109375,0.2965240478515625
1758447537406632200,7.788632080078125,-0.0152435302734375,0.9659271240234375,0.304534912109375
1758447537416605000,7.79860498046875,-0.003326416015625,0.9703521728515625,0.30859375
1758447537426577200,7.8085771484375,0.002593994140625,0.9731292724609375,0.3069610595703125
1758447537436550100,7.818550048828125,0.003997802734375,0.9717864990234375,0.2998809814453125
1758447537446522000,7.828522216796875,-0.0028228759765625,0.96978759765625,0.291900634765625
1758447537456495000,7.8384951171875,-0.0124053955078125,0.966064453125,0.282501220703125
1758447537466467000,7.848467041015625,-0.0247650146484375,0.9633636474609375,0.270782470703125
1758447537476440000,7.858440185546875,-0.0384368896484375,0.9649810791015625,0.2630767822265625
1758447537486412000,7.868412109375,-0.0540008544921875,0.9718017578125,0.2632598876953125
1758447537496385000,7.878385009765625,-0.065948486328125,0.973052978515625,0.2651214599609375
1758447537506357200,7.888357177734375,-0.08123779296875,0.9613494873046875,0.2682952880859375
1758447537516330000,7.898330078125,-0.10382080078125,0.9598236083984375,0.2792816162109375
1758447537526302200,7.90830224609375,-0.1150665283203125,0.9548797607421875,0.2795257568359375
1758447537536275200,7.918275146484375,-0.1195526123046875,0.9660491943359375,0.2850494384765625
1758447537546247000,7.928246826171875,-0.1395263671875,0.9865570068359375,0.29351806640625
1758447537556219100,7.93821923828125,-0.1628265380859375,1.001129150390625,0.3163604736328125
1758447537566192000,7.948192138671875,-0.1728515625,1.0153656005859375,0.354156494140625
1758447537576164000,7.9581640625,-0.15606689453125,0.9885406494140625,0.36376953125
1758447537586137000,7.96813720703125,-0.1179046630859375,0.9212646484375,0.33551025390625
1758447537596109000,7.978109130859375,-0.08056640625,0.8575897216796875,0.3005523681640625
1758447537606082300,7.988082275390625,-0.0372161865234375,0.8145599365234375,0.2521514892578125
1758447537616054000,7.998053955078125,-0.00152587890625,0.8182525634765625,0.2102508544921875
1758447537626027000,8.008027099609375,0.0060882568359375,0.8578643798828125,0.18701171875
1758447537635999200,8.017999267578125,-0.012664794921875,0.9211273193359375,0.1855010986328125
1758447537645972000,8.027971923828124,-0.034515380859375,0.9764251708984375,0.1814117431640625
1758447537655944200,8.037944091796875,-0.055908203125,1.0095672607421875,0.17901611328125
1758447537665917200,8.047917236328125,-0.078033447265625,1.0397186279296875,0.1911773681640625
1758447537675889000,8.057888916015624,-0.094024658203125,1.058807373046875,0.21075439453125
1758447537685861000,8.067861083984376,-0.0990447998046875,1.056671142578125,0.2361297607421875
1758447537695834000,8.077834228515625,-0.0887298583984375,1.027984619140625,0.27130126953125
1758447537705806000,8.08780615234375,-0.0675506591796875,0.9915618896484375,0.3018951416015625
1758447537715779000,8.097779052734374,-0.045654296875,0.9581298828125,0.322235107421875
1758447537725751000,8.1077509765625,-0.0314178466796875,0.935638427734375,0.3450164794921875
1758447537735724300,8.117724365234375,-0.02459716796875,0.921844482421875,0.3630218505859375
1758447537745696000,8.127696044921874,-0.0250091552734375,0.9091644287109375,0.3688201904296875
1758447537755669000,8.1376689453125,-0.026336669921875,0.8983306884765625,0.3655548095703125
1758447537765641200,8.14764111328125,-0.031951904296875,0.8974456787109375,0.3548736572265625
1758447537775614000,8.157614013671875,-0.043060302734375,0.9053802490234375,0.3366851806640625
1758447537785586200,8.167586181640624,-0.057769775390625,0.9242706298828125,0.31585693359375
1758447537795559200,8.17755908203125,-0.07147216796875,0.9430084228515625,0.2877960205078125
1758447537805531100,8.18753125,-0.0901336669921875,0.9593658447265625,0.2697296142578125
1758447537815504100,8.197504150390625,-0.109375,0.977020263671875,0.2572784423828125
1758447537825476000,8.20747607421875,-0.1238250732421875,0.9806976318359375,0.2448577880859375
1758447537835448000,8.217447998046875,-0.126495361328125,0.9681549072265625,0.2294158935546875
1758447537845421000,8.227421142578125,-0.1166229248046875,0.9548797607421875,0.217926025390625
1758447537855393300,8.237393310546874,-0.104034423828125,0.9490814208984375,0.2115020751953125
1758447537865366300,8.2473662109375,-0.09552001953125,0.9568634033203125,0.2192840576171875
1758447537875338000,8.257337890625,-0.0929412841796875,0.9703216552734375,0.2305450439453125
1758447537885311200,8.267311279296875,-0.0895843505859375,0.9770660400390625,0.243804931640625
1758447537895283200,8.277283203125,-0.0850067138671875,0.9711456298828125,0.25897216796875
1758447537905256000,8.287255859375,-0.0746307373046875,0.956817626953125,0.2719879150390625
1758447537915228200,8.297228271484375,-0.0682525634765625,0.9455413818359375,0.2875518798828125
1758447537925201200,8.307201171875,-0.065704345703125,0.943817138671875,0.303985595703125
1758447537935173000,8.317173095703126,-0.064117431640625,0.946380615234375,0.3150787353515625
1758447537945146000,8.32714599609375,-0.061920166015625,0.9446563720703125,0.320404052734375
1758447537955118000,8.3371181640625,-0.0633392333984375,0.94476318359375,0.3259429931640625
1758447537965090800,8.3470908203125,-0.06268310546875,0.9426116943359375,0.3286590576171875
1758447537975062800,8.357062744140626,-0.0631256103515625,0.9430084228515625,0.3285369873046875
1758447537985034800,8.36703466796875,-0.0636749267578125,0.9439849853515625,0.3210906982421875
1758447537995007700,8.3770078125,-0.0648040771484375,0.946380615234375,0.312591552734375
1758447538004980000,8.38697998046875,-0.06427001953125,0.94720458984375,0.3003387451171875
1758447538014952700,8.39695263671875,-0.0678863525390625,0.9494171142578125,0.29248046875
1758447538024924700,8.406924560546875,-0.070465087890625,0.95208740234375,0.282257080078125
1758447538034898000,8.41689794921875,-0.0764007568359375,0.9547576904296875,0.275909423828125
1758447538044869600,8.42686962890625,-0.0789031982421875,0.961212158203125,0.27178955078125
1758447538054842600,8.436842529296875,-0.079620361328125,0.9696197509765625,0.2667236328125
1758447538064814800,8.44681494140625,-0.079833984375,0.9775543212890625,0.2657318115234375
1758447538074787800,8.456787841796874,-0.0809173583984375,0.981964111328125,0.26593017578125
1758447538084759800,8.466759765625,-0.0845947265625,0.9784393310546875,0.267303466796875
1758447538094732800,8.47673291015625,-0.084625244140625,0.9642181396484375,0.2653656005859375
1758447538104704800,8.486704833984374,-0.0816650390625,0.948638916015625,0.2630615234375
1758447538114677800,8.496677734375,-0.0826568603515625,0.9399566650390625,0.261962890625
1758447538124649700,8.506649658203125,-0.0875396728515625,0.93743896484375,0.2656402587890625
1758447538134622000,8.5166220703125,-0.0937957763671875,0.9384613037109375,0.27117919921875
1758447538144594700,8.5265947265625,-0.0992431640625,0.941925048828125,0.2815704345703125
1758447538154566700,8.536566650390625,-0.098419189453125,0.94927978515625,0.2921600341796875
1758447538164540000,8.546539794921875,-0.0938568115234375,0.953582763671875,0.2997589111328125
1758447538174511600,8.55651171875,-0.081146240234375,0.9536895751953125,0.305419921875
1758447538184484600,8.566484619140626,-0.0657806396484375,0.955322265625,0.3073272705078125
1758447538194456800,8.576456787109375,-0.0563201904296875,0.9610595703125,0.3084716796875
1758447538204429800,8.586429931640625,-0.047515869140625,0.9637298583984375,0.3062744140625
1758447538214401800,8.59640185546875,-0.0388031005859375,0.9533538818359375,0.2965240478515625
1758447538224374800,8.606374755859376,-0.0330352783203125,0.9494171142578125,0.2805023193359375
1758447538234346800,8.6163466796875,-0.03643798828125,0.9567718505859375,0.2654876708984375
1758447538244319700,8.62631982421875,-0.04534912109375,0.96856689453125,0.2516937255859375
1758447538254291700,8.636291748046874,-0.056610107421875,0.975555419921875,0.2408294677734375
1758447538264264700,8.6462646484375,-0.065826416015625,0.9745635986328125,0.2341156005859375
1758447538274236700,8.656236572265625,-0.07073974609375,0.96893310546875,0.2326812744140625
1758447538284209000,8.666208984375,-0.0695648193359375,0.96160888671875,0.2340850830078125
1758447538294182000,8.676181884765626,-0.06622314453125,0.956298828125,0.2391815185546875
1758447538304153600,8.686153564453125,-0.06689453125,0.9550018310546875,0.2467498779296875
1758447538314126800,8.696126953125,-0.0690155029296875,0.9561004638671875,0.254852294921875
1758447538324098800,8.706098876953124,-0.07928466796875,0.957275390625,0.2654571533203125
1758447538334071800,8.71607177734375,-0.0863189697265625,0.9554443359375,0.2792816162109375
1758447538344043800,8.726043701171875,-0.0912933349609375,0.9526519775390625,0.2880706787109375
1758447538354016800,8.736016845703125,-0.0882568359375,0.9526519775390625,0.29193115234375
1758447538363989000,8.745989013671876,-0.0838623046875,0.9565582275390625,0.292724609375
1758447538373961700,8.755961669921875,-0.0781707763671875,0.96063232421875,0.29071044921875
1758447538383933700,8.76593359375,-0.0774383544921875,0.9643402099609375,0.290313720703125
1758447538393907000,8.775906982421875,-0.07977294921875,0.960906982421875,0.2931365966796875
1758447538403878700,8.785878662109376,-0.0777587890625,0.9499664306640625,0.29290771484375
1758447538413851600,8.7958515625,-0.0687408447265625,0.945770263671875,0.2853240966796875
1758447538423824000,8.805823974609375,-0.060089111328125,0.9482421875,0.2773895263671875
1758447538433796900,8.815796875,-0.0597686767578125,0.9521331787109375,0.2710723876953125
1758447538443768800,8.825768798828125,-0.062347412109375,0.9585723876953125,0.2701873779296875
1758447538453740800,8.83574072265625,-0.067718505859375,0.9622802734375,0.2697601318359375
1758447538463713800,8.8457138671875,-0.0760345458984375,0.959259033203125,0.2696533203125
1758447538473685800,8.855685791015626,-0.084228515625,0.952545166015625,0.271148681640625
1758447538483658800,8.86565869140625,-0.0861968994140625,0.947235107421875,0.2736663818359375
1758447538493631000,8.875630859375,-0.0896148681640625,0.94921875,0.27362060546875
1758447538503603700,8.885603759765624,-0.09039306640625,0.950408935546875,0.272308349609375
1758447538513575700,8.89557568359375,-0.0876007080078125,0.9554901123046875,0.271392822265625
1758447538523549000,8.905548828125,-0.08367919921875,0.9620513916015625,0.2711944580078125
1758447538533520600,8.915520751953125,-0.080780029296875,0.96490478515625,0.271270751953125
1758447538543493600,8.92549365234375,-0.077880859375,0.959014892578125,0.2705841064453125
1758447538553465900,8.9354658203125,-0.0739898681640625,0.9545745849609375,0.270172119140625
1758447538563438600,8.9454384765625,-0.06732177734375,0.95501708984375,0.2710418701171875
1758447538573410800,8.955410888671874,-0.0637054443359375,0.9587554931640625,0.272369384765625
1758447538583383800,8.9653837890625,-0.06256103515625,0.961334228515625,0.27349853515625
1758447538593355800,8.975355712890625,-0.0589599609375,0.955322265625,0.2733154296875
1758447538603327700,8.98532763671875,-0.056884765625,0.9513702392578125,0.2664947509765625
1758447538613300700,8.99530078125,-0.0550079345703125,0.9524688720703125,0.2592010498046875
1758447538623272700,9.005272705078125,-0.05828857421875,0.9547576904296875,0.2566375732421875
1758447538633245700,9.01524560546875,-0.06304931640625,0.9571990966796875,0.2542877197265625
1758447538643218000,9.025218017578124,-0.0693817138671875,0.957427978515625,0.255889892578125
1758447538653191000,9.03519091796875,-0.073974609375,0.9606781005859375,0.259033203125
1758447538663162600,9.04516259765625,-0.07940673828125,0.9616241455078125,0.263031005859375
1758447538673135900,9.055135986328125,-0.0811767578125,0.9608612060546875,0.268218994140625
1758447538683107800,9.06510791015625,-0.080810546875,0.961517333984375,0.2748565673828125
1758447538693080600,9.07508056640625,-0.0806121826171875,0.96136474609375,0.279693603515625
1758447538703052800,9.085052734375,-0.0754241943359375,0.9575042724609375,0.2833709716796875
1758447538713025800,9.09502587890625,-0.0682373046875,0.9548492431640625,0.2866058349609375
1758447538722997800,9.104997802734376,-0.0616302490234375,0.954681396484375,0.287872314453125
1758447538732970800,9.114970703125,-0.06005859375,0.9556427001953125,0.287109375
1758447538742942700,9.124942626953125,-0.060943603515625,0.95794677734375,0.2887420654296875
1758447538752914700,9.134914794921874,-0.0626220703125,0.9601593017578125,0.28741455078125
1758447538762887700,9.1448876953125,-0.0652008056640625,0.9582672119140625,0.286285400390625
1758447538772860000,9.15485986328125,-0.069244384765625,0.9557952880859375,0.2826385498046875
1758447538782833000,9.1648330078125,-0.07061767578125,0.95294189453125,0.276702880859375
1758447538792804600,9.1748046875,-0.07562255859375,0.9500274658203125,0.2694091796875
1758447538802777900,9.18477783203125,-0.0792236328125,0.949737548828125,0.26385498046875
1758447538812749800,9.194749755859375,-0.0828857421875,0.952850341796875,0.26043701171875
1758447538822722600,9.20472265625,-0.0877532958984375,0.955413818359375,0.2601165771484375
1758447538832694800,9.21469482421875,-0.0905609130859375,0.956390380859375,0.2629547119140625
1758447538842667800,9.224667724609375,-0.0913848876953125,0.9575347900390625,0.2672271728515625
1758447538852639700,9.2346396484375,-0.08673095703125,0.9552459716796875,0.2707977294921875
1758447538862612700,9.24461279296875,-0.075958251953125,0.95355224609375,0.27093505859375
1758447538872584700,9.254584716796876,-0.0647125244140625,0.9567413330078125,0.26849365234375
1758447538882558000,9.264557861328125,-0.0538482666015625,0.9606475830078125,0.26239013671875
1758447538892529700,9.27452978515625,-0.0466766357421875,0.965972900390625,0.256011962890625
1758447538902502000,9.284501953125,-0.0464019775390625,0.9704437255859375,0.251953125
1758447538912475000,9.294474853515625,-0.0490264892578125,0.9685211181640625,0.2512054443359375
1758447538922446800,9.30444677734375,-0.05224609375,0.964324951171875,0.250274658203125
1758447538932419800,9.314419921875,-0.0513916015625,0.9570770263671875,0.2518463134765625
1758447538942391800,9.324391845703126,-0.0514678955078125,0.9580535888671875,0.252593994140625
1758447538952364800,9.33436474609375,-0.05523681640625,0.9605560302734375,0.2548065185546875
1758447538962336800,9.344336669921875,-0.0595245361328125,0.96417236328125,0.2613677978515625
1758447538972309800,9.354309814453124,-0.0666961669921875,0.9650726318359375,0.2676239013671875
1758447538982281700,9.36428173828125,-0.0696868896484375,0.9593963623046875,0.2731170654296875
1758447538992254700,9.374254638671875,-0.0684356689453125,0.9553680419921875,0.2760467529296875
1758447539002227000,9.38422705078125,-0.0677490234375,0.9576873779296875,0.27874755859375
1758447539012200000,9.394199951171874,-0.072052001953125,0.9632720947265625,0.2831268310546875
1758447539022171600,9.404171630859375,-0.076568603515625,0.9599151611328125,0.2862701416015625
1758447539032145000,9.414144775390625,-0.07879638671875,0.954742431640625,0.28558349609375
1758447539042116900,9.424116943359374,-0.0796966552734375,0.9506683349609375,0.2847137451171875
1758447539052088800,9.4340888671875,-0.0787506103515625,0.948455810546875,0.2816619873046875
1758447539062061800,9.444061767578125,-0.08123779296875,0.94927978515625,0.2744903564453125
1758447539072033800,9.45403369140625,-0.08331298828125,0.9511871337890625,0.272064208984375
1758447539082006800,9.4640068359375,-0.0884246826171875,0.95220947265625,0.2708740234375
1758447539091978800,9.473978759765625,-0.0915069580078125,0.9547119140625,0.2731475830078125
1758447539101951700,9.48395166015625,-0.0939178466796875,0.9547882080078125,0.2776947021484375
1758447539111923700,9.493923828125,-0.0893707275390625,0.9528961181640625,0.27703857421875
1758447539121896700,9.503896728515626,-0.078460693359375,0.950347900390625,0.272857666015625
1758447539131869000,9.513868896484375,-0.0668487548828125,0.9536895751953125,0.2685089111328125
1758447539141842000,9.523842041015625,-0.0618133544921875,0.9597930908203125,0.2629547119140625
1758447539151813600,9.533813720703124,-0.0613555908203125,0.965911865234375,0.26123046875
1758447539161787000,9.543786865234376,-0.0637054443359375,0.9635162353515625,0.26177978515625
1758447539171758600,9.553758544921875,-0.06060791015625,0.95654296875,0.259796142578125
1758447539181731600,9.563731689453125,-0.053131103515625,0.9545440673828125,0.2584381103515625
1758447539191703800,9.573703857421876,-0.0432586669921875,0.953582763671875,0.2549896240234375
1758447539201675800,9.58367578125,-0.0372467041015625,0.9591064453125,0.249969482421875
1758447539211648800,9.593648681640625,-0.037017822265625,0.96337890625,0.2473602294921875
1758447539221620700,9.603620849609374,-0.04180908203125,0.969940185546875,0.2468109130859375
1758447539231593700,9.61359375,-0.047943115234375,0.974029541015625,0.2502288818359375
1758447539241565700,9.623565673828125,-0.054168701171875,0.9680938720703125,0.252838134765625
1758447539251538700,9.63353857421875,-0.0582122802734375,0.957000732421875,0.2572479248046875
1758447539261511000,9.643510986328126,-0.0536956787109375,0.954010009765625,0.260162353515625
1758447539271483600,9.653483642578125,-0.049896240234375,0.95916748046875,0.2606964111328125
1758447539281455900,9.663455810546875,-0.047698974609375,0.9686737060546875,0.2597808837890625
1758447539291428900,9.673428955078125,-0.0493316650390625,0.9737548828125,0.2602691650390625
1758447539301400600,9.683400634765626,-0.0515289306640625,0.9745330810546875,0.260894775390625
1758447539311373800,9.693373779296875,-0.0525970458984375,0.966949462890625,0.2606048583984375
1758447539321345800,9.703345703125,-0.0523529052734375,0.9621734619140625,0.2586212158203125
1758447539331318800,9.71331884765625,-0.0509185791015625,0.9606475830078125,0.2579498291015625
1758447539341290800,9.723290771484375,-0.0571441650390625,0.959930419921875,0.261474609375
1758447539351263700,9.733263671875,-0.0659027099609375,0.9606475830078125,0.26580810546875
1758447539361236000,9.743236083984375,-0.07330322265625,0.9557037353515625,0.26934814453125
1758447539371207700,9.753207763671876,-0.0761871337890625,0.952606201171875,0.26898193359375
1758447539381180700,9.7631806640625,-0.0794677734375,0.953582763671875,0.2694549560546875
1758447539391153000,9.77315283203125,-0.079437255859375,0.9549560546875,0.271759033203125
1758447539401125600,9.783125732421874,-0.0774383544921875,0.9546051025390625,0.271728515625
1758447539411097900,9.793097900390626,-0.0754547119140625,0.9528961181640625,0.2731781005859375
1758447539421070800,9.80307080078125,-0.0764617919921875,0.9557342529296875,0.2781829833984375
1758447539431042600,9.81304248046875,-0.07855224609375,0.9563751220703125,0.2835235595703125
1758447539441015800,9.823015869140624,-0.0816650390625,0.9499359130859375,0.287841796875
1758447539450987800,9.83298779296875,-0.0820465087890625,0.9420013427734375,0.2893524169921875
1758447539460960800,9.842960693359375,-0.0781402587890625,0.939208984375,0.29339599609375
1758447539470932700,9.8529326171875,-0.0766448974609375,0.9421844482421875,0.2999420166015625
1758447539480905700,9.86290576171875,-0.0748291015625,0.95233154296875,0.3124847412109375
1758447539490878000,9.8728779296875,-0.0728759765625,0.9689483642578125,0.32220458984375
1758447539500850700,9.8828505859375,-0.06805419921875,0.9703216552734375,0.3251800537109375
1758447539510822700,9.89282275390625,-0.0564727783203125,0.9591217041015625,0.31475830078125
1758447539520795000,9.902794921875,-0.041656494140625,0.95257568359375,0.2906646728515625
1758447539530767600,9.912767578125,-0.0328521728515625,0.96697998046875,0.2516632080078125
1758447539540739800,9.92273974609375,-0.0316162109375,0.9760589599609375,0.207855224609375
1758447539550712800,9.932712890625,-0.0512542724609375,0.9844207763671875,0.1872100830078125
1758447539560684800,9.942684814453125,-0.0766143798828125,0.987945556640625,0.182952880859375
1758447539570657800,9.95265771484375,-0.0945892333984375,0.980865478515625,0.1771392822265625
1758447539580629800,9.962629638671874,-0.1151123046875,0.9594879150390625,0.17584228515625
1758447539590602800,9.972602783203126,-0.1403045654296875,0.927825927734375,0.19012451171875
1758447539600574700,9.98257470703125,-0.167327880859375,0.9305877685546875,0.2314453125
1758447539610547700,9.992547607421875,-0.1733245849609375,0.945587158203125,0.264495849609375
1758447539620520000,10.00252001953125,-0.160614013671875,0.94915771484375,0.276824951171875
1758447539630492700,10.01249267578125,-0.1417083740234375,0.953887939453125,0.2917938232421875
1758447539640465000,10.02246484375,-0.1194915771484375,0.96673583984375,0.305755615234375
1758447539650438000,10.03243798828125,-0.0949249267578125,0.9614715576171875,0.3080596923828125
1758447539660409600,10.04240966796875,-0.07830810546875,0.9464263916015625,0.3069610595703125
1758447539670381800,10.0523818359375,-0.063934326171875,0.9365997314453125,0.3065948486328125
1758447539680354800,10.062354736328125,-0.05413818359375,0.9383697509765625,0.3092193603515625
1758447539690326800,10.072326904296874,-0.0443572998046875,0.9460296630859375,0.3098297119140625
1758447539700299800,10.0822998046875,-0.0328521728515625,0.9538116455078125,0.3113861083984375
1758447539710271700,10.092271728515625,-0.0202178955078125,0.96435546875,0.309112548828125
1758447539720245000,10.102244873046875,-0.0135040283203125,0.9748992919921875,0.300079345703125
1758447539730216700,10.112216796875,-0.01776123046875,0.9808502197265625,0.2815399169921875
1758447539740189700,10.122189697265625,-0.031219482421875,0.97930908203125,0.2586669921875
1758447539750162000,10.132161865234375,-0.0457763671875,0.973480224609375,0.2396087646484375
1758447539760134700,10.142134765625,-0.0645751953125,0.9680938720703125,0.230133056640625
1758447539770107000,10.15210693359375,-0.0755767822265625,0.9644775390625,0.2270660400390625
1758447539780079900,10.162079833984375,-0.08447265625,0.9623565673828125,0.2269134521484375
1758447539790051600,10.172051513671875,-0.09161376953125,0.9618377685546875,0.233062744140625
1758447539800023800,10.18202392578125,-0.099151611328125,0.963348388671875,0.2484588623046875
1758447539809996800,10.191996826171875,-0.0991363525390625,0.9642486572265625,0.2662811279296875
1758447539819968800,10.20196875,-0.0933990478515625,0.9557037353515625,0.277099609375
1758447539829941800,10.211941650390624,-0.0805206298828125,0.94140625,0.281524658203125
1758447539839913700,10.221913818359376,-0.0657958984375,0.9381866455078125,0.2833709716796875
1758447539849886700,10.23188671875,-0.0610198974609375,0.9429168701171875,0.2842559814453125
1758447539859858700,10.241858642578125,-0.0677490234375,0.953277587890625,0.2892608642578125
1758447539869831700,10.251831787109374,-0.08343505859375,0.96142578125,0.2945404052734375
1758447539879803600,10.2618037109375,-0.0943450927734375,0.956817626953125,0.2970733642578125
1758447539889776600,10.271776611328125,-0.09869384765625,0.9481201171875,0.3023529052734375
1758447539899748900,10.281748779296874,-0.0951080322265625,0.940765380859375,0.3047637939453125
1758447539909721900,10.291721923828124,-0.0897369384765625,0.937164306640625,0.30584716796875
1758447539919693800,10.30169384765625,-0.085052490234375,0.9398651123046875,0.303009033203125
1758447539929666800,10.311666748046875,-0.086822509765625,0.9513092041015625,0.303253173828125
1758447539939638800,10.321638671875,-0.087799072265625,0.961273193359375,0.3092498779296875
1758447539949610800,10.33161083984375,-0.0853729248046875,0.9637451171875,0.311614990234375
1758447539959583700,10.341583740234375,-0.072357177734375,0.959869384765625,0.3034515380859375
1758447539969555500,10.351555419921874,-0.058074951171875,0.9536285400390625,0.2908172607421875
1758447539979528400,10.361528564453126,-0.051544189453125,0.952056884765625,0.2735748291015625
1758447539989500200,10.371500244140625,-0.0539093017578125,0.9584197998046875,0.260955810546875
1758447539999473400,10.381473388671875,-0.0580291748046875,0.966522216796875,0.250518798828125
1758447540009445400,10.3914453125,-0.0709991455078125,0.9689788818359375,0.2393035888671875
1758447540019418400,10.40141845703125,-0.0816802978515625,0.9629669189453125,0.2301483154296875
1758447540029390300,10.411390380859375,-0.081634521484375,0.95538330078125,0.225006103515625
1758447540039363300,10.42136328125,-0.0782470703125,0.95233154296875,0.2199859619140625
1758447540049335600,10.43133544921875,-0.0720672607421875,0.952117919921875,0.2216033935546875
1758447540059308300,10.441308349609375,-0.0669403076171875,0.956024169921875,0.2276458740234375
1758447540069280500,10.451280517578125,-0.0668792724609375,0.9590606689453125,0.2410430908203125
1758447540079252500,10.46125244140625,-0.070587158203125,0.9611663818359375,0.25799560546875
1758447540089225200,10.47122509765625,-0.0727996826171875,0.96221923828125,0.2680206298828125
1758447540099197400,10.481197509765625,-0.0725250244140625,0.9627685546875,0.2684783935546875
1758447540109170400,10.49117041015625,-0.07415771484375,0.9634552001953125,0.26873779296875
1758447540119142400,10.501142333984374,-0.0765533447265625,0.96099853515625,0.271636962890625
1758447540129115400,10.511115478515626,-0.0787811279296875,0.9579925537109375,0.27490234375
1758447540139087400,10.52108740234375,-0.0767974853515625,0.9525909423828125,0.277069091796875
1758447540149060600,10.531060546875,-0.070068359375,0.949310302734375,0.2767791748046875
1758447540159032300,10.5410322265625,-0.06256103515625,0.9515380859375,0.2752838134765625
1758447540169005300,10.55100537109375,-0.0573883056640625,0.9576416015625,0.2751312255859375
1758447540178977500,10.5609775390625,-0.0565948486328125,0.96502685546875,0.2797698974609375
1758447540188950300,10.5709501953125,-0.057373046875,0.9681396484375,0.28070068359375
1758447540198922500,10.580922607421876,-0.0549468994140625,0.9633636474609375,0.2799835205078125
1758447540208894500,10.59089453125,-0.053863525390625,0.9565887451171875,0.275299072265625
1758447540218867200,10.6008671875,-0.0547332763671875,0.9540252685546875,0.2716827392578125
1758447540228839400,10.61083935546875,-0.05999755859375,0.9584197998046875,0.271575927734375
1758447540238812400,10.6208125,-0.0678253173828125,0.9656219482421875,0.27093505859375
1758447540248784400,10.630784423828125,-0.0753936767578125,0.963714599609375,0.2664794921875
1758447540258757400,10.64075732421875,-0.077178955078125,0.963165283203125,0.2615966796875
1758447540268729300,10.650729248046876,-0.073272705078125,0.959442138671875,0.25531005859375
1758447540278702600,10.66070263671875,-0.067230224609375,0.95684814453125,0.250335693359375
1758447540288674300,10.67067431640625,-0.060150146484375,0.96136474609375,0.246856689453125
1758447540298647300,10.680647216796874,-0.05633544921875,0.9640655517578125,0.2421417236328125
1758447540308619500,10.69061962890625,-0.0574188232421875,0.9608001708984375,0.2396240234375
1758447540318592300,10.70059228515625,-0.058349609375,0.9580841064453125,0.2413482666015625
1758447540328564500,10.710564453125,-0.06793212890625,0.959991455078125,0.245391845703125
1758447540338536400,10.720536376953126,-0.0739898681640625,0.96038818359375,0.250152587890625
1758447540348509200,10.73050927734375,-0.0706329345703125,0.957305908203125,0.255157470703125
1758447540358481400,10.7404814453125,-0.0648193359375,0.9583740234375,0.2583160400390625
1758447540368454400,10.750454345703124,-0.0606842041015625,0.9631195068359375,0.2611083984375
1758447540378426400,10.76042626953125,-0.0604705810546875,0.9646453857421875,0.26275634765625
1758447540388399400,10.7703994140625,-0.0650787353515625,0.9612274169921875,0.26519775390625
1758447540398371600,10.78037158203125,-0.068389892578125,0.955780029296875,0.270050048828125
1758447540408344600,10.790344482421874,-0.065643310546875,0.950897216796875,0.2737579345703125
1758447540418316300,10.80031640625,-0.06304931640625,0.95281982421875,0.2720947265625
1758447540428289500,10.81028955078125,-0.057342529296875,0.9579010009765625,0.266387939453125
1758447540438261500,10.820261474609374,-0.059326171875,0.962615966796875,0.260589599609375
1758447540448234200,10.830234130859376,-0.064849853515625,0.9636993408203125,0.25665283203125
1758447540458206500,10.84020654296875,-0.0706939697265625,0.961883544921875,0.2542724609375
1758447540468178400,10.850178466796875,-0.0702667236328125,0.9603118896484375,0.2558746337890625
1758447540478151400,10.8601513671875,-0.0658416748046875,0.9604644775390625,0.256683349609375
1758447540488123400,10.870123291015625,-0.0621337890625,0.959259033203125,0.2559967041015625
1758447540498096400,10.880096435546875,-0.0642852783203125,0.9615478515625,0.2594451904296875
1758447540508068400,10.890068359375,-0.071044921875,0.961090087890625,0.265533447265625
1758447540518041300,10.900041259765626,-0.076568603515625,0.957000732421875,0.2741546630859375
1758447540528013600,10.910013671875,-0.0789031982421875,0.9555816650390625,0.281890869140625
1758447540537986300,10.919986328125,-0.076812744140625,0.953826904296875,0.2870025634765625
1758447540547958300,10.929958251953124,-0.0732269287109375,0.9515228271484375,0.2900848388671875
1758447540557931500,10.939931640625,-0.0662384033203125,0.94970703125,0.2929840087890625
1758447540567903200,10.9499033203125,-0.062408447265625,0.9513702392578125,0.2931976318359375
1758447540577876200,10.959876220703125,-0.062591552734375,0.9510955810546875,0.2945556640625
1758447540587848400,10.969848388671876,-0.0657196044921875,0.952667236328125,0.293609619140625
1758447540597820200,10.979820068359375,-0.06689453125,0.955902099609375,0.2906494140625
1758447540607793400,10.98979345703125,-0.0680999755859375,0.956024169921875,0.2877655029296875
1758447540617765400,10.999765380859374,-0.070404052734375,0.9561309814453125,0.282958984375
1758447540627738400,11.00973828125,-0.0722808837890625,0.9545745849609375,0.277801513671875
1758447540637710300,11.01971044921875,-0.071746826171875,0.9537811279296875,0.275604248046875
1758447540647683300,11.029683349609375,-0.0715789794921875,0.9523162841796875,0.27398681640625
1758447540657655600,11.039655517578124,-0.071380615234375,0.951751708984375,0.2717742919921875
1758447540667628300,11.049628173828125,-0.071685791015625,0.9542388916015625,0.269927978515625
1758447540677600300,11.059600341796875,-0.074249267578125,0.9551849365234375,0.266204833984375
1758447540687573500,11.069573486328125,-0.0789337158203125,0.9560394287109375,0.265777587890625
1758447540697545200,11.079545166015626,-0.0832977294921875,0.9590911865234375,0.26953125
1758447540707518500,11.0895185546875,-0.0851898193359375,0.956939697265625,0.2717437744140625
1758447540717490400,11.099490478515625,-0.076568603515625,0.9562225341796875,0.275726318359375
1758447540727462400,11.10946240234375,-0.066314697265625,0.95819091796875,0.278228759765625
1758447540737435400,11.119435302734376,-0.05517578125,0.957275390625,0.27996826171875
1758447540747407400,11.129407470703125,-0.04779052734375,0.9579925537109375,0.280242919921875
1758447540757380600,11.139380615234375,-0.0435028076171875,0.9570465087890625,0.280242919921875
1758447540767352300,11.149352294921876,-0.0416717529296875,0.9562225341796875,0.2758331298828125
1758447540777325300,11.1593251953125,-0.044036865234375,0.9618988037109375,0.2746734619140625
1758447540787297500,11.169297607421875,-0.05108642578125,0.962249755859375,0.2725982666015625
1758447540797270300,11.179270263671874,-0.056915283203125,0.959228515625,0.2707977294921875
1758447540807242500,11.189242431640626,-0.0595550537109375,0.9564361572265625,0.267333984375
1758447540817215500,11.199215576171875,-0.061370849609375,0.955657958984375,0.2632598876953125
1758447540827187200,11.209187255859375,-0.063018798828125,0.9592742919921875,0.2613372802734375
1758447540837159400,11.219159423828126,-0.0667724609375,0.96063232421875,0.258209228515625
1758447540847132400,11.22913232421875,-0.0707244873046875,0.9615020751953125,0.2557830810546875
1758447540857104400,11.2391044921875,-0.0728607177734375,0.957061767578125,0.254730224609375
1758447540867077400,11.249077392578124,-0.0738372802734375,0.954833984375,0.2549285888671875
1758447540877049300,11.25904931640625,-0.069793701171875,0.9569854736328125,0.2578887939453125
1758447540887022600,11.269022705078125,-0.0678863525390625,0.960968017578125,0.2611083984375
1758447540896994300,11.278994384765625,-0.06341552734375,0.9639129638671875,0.261505126953125
1758447540906967300,11.28896728515625,-0.060028076171875,0.9626922607421875,0.2613067626953125
1758447540916939500,11.298939453125,-0.06060791015625,0.961883544921875,0.2636566162109375
1758447540926912300,11.308912353515625,-0.063629150390625,0.9644317626953125,0.2701263427734375
1758447540936884500,11.318884521484375,-0.0641326904296875,0.965576171875,0.2769775390625
1758447540946856400,11.3288564453125,-0.065948486328125,0.9643096923828125,0.28570556640625
1758447540956829200,11.3388291015625,-0.0641937255859375,0.9579925537109375,0.2905426025390625
1758447540966801400,11.348801513671875,-0.05889892578125,0.954803466796875,0.292510986328125
1758447540976775200,11.358775146484374,-0.05816650390625,0.9577484130859375,0.2913970947265625
1758447540986747100,11.3687470703125,-0.0615692138671875,0.9623260498046875,0.287353515625
1758447540996720000,11.37872021484375,-0.0657958984375,0.96844482421875,0.28253173828125
1758447541006692000,11.388692138671875,-0.0687408447265625,0.9733428955078125,0.2748565673828125
1758447541016665300,11.398665283203124,-0.0709381103515625,0.97589111328125,0.2678985595703125
1758447541026637000,11.408636962890625,-0.0780029296875,0.9722747802734375,0.266510009765625
1758447541036610000,11.418610107421875,-0.08367919921875,0.966796875,0.2623748779296875
1758447541046582300,11.428582275390625,-0.0875701904296875,0.9600677490234375,0.2605133056640625
1758447541056555000,11.438554931640626,-0.0865020751953125,0.931488037109375,0.24493408203125
1758447541066527200,11.44852734375,-0.079986572265625,0.8890838623046875,0.2318115234375
1758447541076499000,11.4584990234375,-0.08203125,0.8894500732421875,0.24822998046875
1758447541086472000,11.468471923828124,-0.0810699462890625,0.92431640625,0.2733306884765625
1758447541096444200,11.478444091796876,-0.0590057373046875,0.9358062744140625,0.2863311767578125
1758447541106417200,11.488417236328125,-0.0425567626953125,0.9279632568359375,0.2976226806640625
1758447541116389000,11.49838916015625,-0.0382232666015625,0.92340087890625,0.3191375732421875
1758447541126362000,11.508362060546874,-0.0518646240234375,0.962493896484375,0.3515472412109375
1758447541136334000,11.518333984375,-0.0684814453125,1.0211181640625,0.37811279296875
1758447541146307000,11.52830712890625,-0.0729522705078125,1.0308990478515625,0.3710784912109375
1758447541156279000,11.538279052734374,-0.0696563720703125,0.989105224609375,0.3487701416015625
1758447541166252000,11.548251953125,-0.0657806396484375,0.95220947265625,0.3262481689453125
1758447541176224000,11.55822412109375,-0.0623016357421875,0.9369354248046875,0.2998809814453125
1758447541186196000,11.568196044921875,-0.05902099609375,0.9347076416015625,0.2740020751953125
1758447541196169200,11.578169189453124,-0.0604705810546875,0.9370269775390625,0.2456817626953125
1758447541206141000,11.588140869140625,-0.0692291259765625,0.94219970703125,0.227294921875
1758447541216114000,11.598114013671875,-0.0806884765625,0.9503631591796875,0.22039794921875
1758447541226086100,11.608086181640624,-0.087127685546875,0.95953369140625,0.2175445556640625
1758447541236059100,11.61805908203125,-0.0943450927734375,0.9657745361328125,0.2240142822265625
1758447541246031000,11.628031005859375,-0.101318359375,0.969512939453125,0.2357025146484375
1758447541256004000,11.638004150390625,-0.102447509765625,0.961212158203125,0.2501983642578125
1758447541265976000,11.64797607421875,-0.0963287353515625,0.952056884765625,0.269012451171875
1758447541275949000,11.657948974609376,-0.0786285400390625,0.9503936767578125,0.279205322265625
1758447541285921000,11.667921142578125,-0.06005859375,0.9575347900390625,0.290618896484375
1758447541295893200,11.677893310546875,-0.0484619140625,0.962921142578125,0.300079345703125
1758447541305866000,11.687865966796876,-0.0422515869140625,0.966461181640625,0.3040618896484375
1758447541315838200,11.697838134765625,-0.0387420654296875,0.963653564453125,0.3004913330078125
1758447541325811200,11.707811279296875,-0.040008544921875,0.9553070068359375,0.2926788330078125
1758447541335783000,11.717782958984374,-0.0417022705078125,0.9502716064453125,0.28204345703125
1758447541345756200,11.727756103515626,-0.04779052734375,0.9517974853515625,0.2704620361328125
1758447541355728100,11.73772802734375,-0.0524444580078125,0.952850341796875,0.2614593505859375
1758447541365701000,11.747701171875,-0.0586395263671875,0.952423095703125,0.2516021728515625
1758447541375673000,11.757673095703124,-0.0619964599609375,0.9557647705078125,0.2454681396484375
1758447541385646000,11.76764599609375,-0.0661163330078125,0.957794189453125,0.242950439453125
1758447541395618300,11.777618408203125,-0.0697021484375,0.9605865478515625,0.23974609375
1758447541405590000,11.787590087890624,-0.071807861328125,0.96435546875,0.2407073974609375
1758447541415563000,11.79756298828125,-0.0775299072265625,0.964691162109375,0.245391845703125
1758447541425535200,11.80753515625,-0.083343505859375,0.96429443359375,0.250885009765625
1758447541435508000,11.817508056640625,-0.0915679931640625,0.9595489501953125,0.2579345703125
1758447541445480200,11.827480224609374,-0.101318359375,0.9571533203125,0.2702178955078125
1758447541455453200,11.837453125,-0.108917236328125,0.954925537109375,0.2847137451171875
1758447541465425000,11.8474248046875,-0.11163330078125,0.9545135498046875,0.297607421875
1758447541475398100,11.857398193359375,-0.1072998046875,0.94866943359375,0.3064727783203125
1758447541485370000,11.8673701171875,-0.1025390625,0.945465087890625,0.3162384033203125
1758447541495343000,11.877343017578125,-0.095916748046875,0.9441375732421875,0.3231048583984375
1758447541505315000,11.887315185546875,-0.0865020751953125,0.943695068359375,0.3301239013671875
1758447541515287000,11.897287109375,-0.0757598876953125,0.9456329345703125,0.333465576171875
1758447541525260300,11.90726025390625,-0.05859375,0.94891357421875,0.3263397216796875
1758447541535232000,11.91723193359375,-0.0396575927734375,0.9514007568359375,0.3086395263671875
1758447541545205000,11.927205078125,-0.0258941650390625,0.957000732421875,0.287445068359375
1758447541555177200,11.93717724609375,-0.026580810546875,0.9615936279296875,0.2664794921875
1758447541565150000,11.94714990234375,-0.0333251953125,0.967987060546875,0.244110107421875
1758447541575122200,11.9571220703125,-0.039886474609375,0.9710540771484375,0.221466064453125
1758447541585095200,11.96709521484375,-0.047088623046875,0.97216796875,0.2017974853515625
1758447541595067100,11.977067138671876,-0.0513763427734375,0.9725494384765625,0.1880035400390625
1758447541605040000,11.9870400390625,-0.0593414306640625,0.974090576171875,0.1793060302734375
1758447541615012000,11.99701220703125,-0.0685272216796875,0.9723358154296875,0.1776275634765625
1758447541624984000,12.006984130859376,-0.0770721435546875,0.97039794921875,0.18048095703125
1758447541634957000,12.01695703125,-0.0810546875,0.968963623046875,0.189300537109375
1758447541644929300,12.02692919921875,-0.0816497802734375,0.9683074951171875,0.2057647705078125
1758447541654902300,12.03690234375,-0.0803985595703125,0.96527099609375,0.228546142578125
1758447541664874000,12.0468740234375,-0.078582763671875,0.964630126953125,0.2484130859375
1758447541674847200,12.05684716796875,-0.0736083984375,0.967498779296875,0.2693634033203125
1758447541684819200,12.066819091796875,-0.073486328125,0.95977783203125,0.288543701171875
1758447541694792000,12.0767919921875,-0.0771026611328125,0.951934814453125,0.3097381591796875
1758447541704764200,12.08676416015625,-0.076446533203125,0.94671630859375,0.3266754150390625
1758447541714736000,12.096736083984375,-0.068145751953125,0.9466400146484375,0.3366851806640625
1758447541724709000,12.106709228515625,-0.0606689453125,0.950775146484375,0.341339111328125
1758447541734681000,12.11668115234375,-0.0578460693359375,0.9518890380859375,0.341400146484375
1758447541744654000,12.126654052734375,-0.05938720703125,0.953216552734375,0.341461181640625
1758447541754626000,12.1366259765625,-0.0625457763671875,0.950775146484375,0.3372344970703125
1758447541764599000,12.14659912109375,-0.061767578125,0.9463348388671875,0.333282470703125
1758447541774571300,12.1565712890625,-0.0614013671875,0.9403228759765625,0.3213653564453125
1758447541784544000,12.1665439453125,-0.060211181640625,0.9390869140625,0.312347412109375
1758447541794516000,12.176515869140625,-0.06329345703125,0.9373016357421875,0.3035736083984375
1758447541804489200,12.1864892578125,-0.0677947998046875,0.9409942626953125,0.2983245849609375
1758447541814461000,12.1964609375,-0.0724639892578125,0.9469757080078125,0.29779052734375
1758447541824433200,12.20643310546875,-0.0745697021484375,0.949432373046875,0.2932281494140625
1758447541834406100,12.21640625,-0.0717315673828125,0.9495086669921875,0.2856903076171875
1758447541844378000,12.226378173828126,-0.06707763671875,0.948089599609375,0.2758026123046875
1758447541854351000,12.23635107421875,-0.0644073486328125,0.9530181884765625,0.2674102783203125
1758447541864323000,12.246322998046875,-0.068450927734375,0.9599761962890625,0.259552001953125
1758447541874296000,12.256296142578124,-0.0711822509765625,0.969085693359375,0.2581634521484375
1758447541884268000,12.26626806640625,-0.0762939453125,0.975433349609375,0.259613037109375
1758447541894241000,12.276240966796875,-0.078369140625,0.9703826904296875,0.2616424560546875
1758447541904213200,12.286213134765624,-0.0826873779296875,0.963165283203125,0.2660064697265625
1758447541914185000,12.29618505859375,-0.083587646484375,0.955230712890625,0.269744873046875
1758447541924158200,12.306158203125,-0.082550048828125,0.955352783203125,0.27911376953125
1758447541934130200,12.316130126953125,-0.0804595947265625,0.959869384765625,0.293121337890625
1758447541944103000,12.32610302734375,-0.0732269287109375,0.9554901123046875,0.302154541015625
1758447541954075100,12.3360751953125,-0.063812255859375,0.9499359130859375,0.3084869384765625
1758447541964048100,12.346048095703125,-0.05047607421875,0.9518890380859375,0.3053436279296875
1758447541974019800,12.356019775390624,-0.0397186279296875,0.9545745849609375,0.298858642578125
1758447541983992800,12.365992919921876,-0.0341339111328125,0.960845947265625,0.294708251953125
1758447541993964800,12.37596484375,-0.0339508056640625,0.9601898193359375,0.2914581298828125
1758447542003938000,12.38593798828125,-0.034210205078125,0.9525146484375,0.2865142822265625
1758447542013909800,12.39590966796875,-0.037322998046875,0.9481658935546875,0.283966064453125
1758447542023882000,12.405882080078126,-0.0373687744140625,0.949188232421875,0.28448486328125
1758447542033855000,12.41585498046875,-0.0364532470703125,0.94866943359375,0.2877349853515625
1758447542043827000,12.425826904296875,-0.041656494140625,0.9456939697265625,0.2944183349609375
1758447542053800000,12.435800048828124,-0.048736572265625,0.9431304931640625,0.3000640869140625
1758447542063772000,12.44577197265625,-0.05615234375,0.93951416015625,0.3019866943359375
1758447542073745000,12.455744873046875,-0.060546875,0.9395904541015625,0.2991943359375
1758447542083716900,12.465716796875,-0.064666748046875,0.9388427734375,0.29278564453125
1758447542093689900,12.47568994140625,-0.061676025390625,0.9341888427734375,0.2823638916015625
1758447542103661800,12.485661865234375,-0.0548248291015625,0.93328857421875,0.27325439453125
1758447542113633800,12.4956337890625,-0.047515869140625,0.93621826171875,0.26409912109375
1758447542123607000,12.50560693359375,-0.039398193359375,0.9443359375,0.2621307373046875
1758447542133578800,12.515578857421875,-0.034942626953125,0.95098876953125,0.260101318359375
1758447542143551700,12.5255517578125,-0.0299530029296875,0.9498138427734375,0.2606353759765625
1758447542153524000,12.53552392578125,-0.021209716796875,0.9492340087890625,0.2564849853515625
1758447542163497000,12.5454970703125,-0.00872802734375,0.9549713134765625,0.2552337646484375
1758447542173469000,12.555468994140625,0.0024566650390625,0.96734619140625,0.25799560546875
1758447542183442000,12.56544189453125,0.013031005859375,0.9716644287109375,0.26385498046875
1758447542193414000,12.575413818359374,0.0191802978515625,0.9656829833984375,0.2659912109375
1758447542203385900,12.5853857421875,0.0205078125,0.9550323486328125,0.2592010498046875
1758447542213358800,12.59535888671875,0.0140533447265625,0.945159912109375,0.2581024169921875
1758447542223330800,12.605330810546874,-0.0015106201171875,0.9348602294921875,0.26483154296875
1758447542233303800,12.6153037109375,-0.018646240234375,0.9277496337890625,0.272674560546875
1758447542243275800,12.62527587890625,-0.038848876953125,0.919677734375,0.2879791259765625
1758447542253249000,12.6352490234375,-0.05279541015625,0.9047088623046875,0.2898101806640625
1758447542263220700,12.645220703125,-0.05950927734375,0.8790283203125,0.282470703125
1758447542273193700,12.65519384765625,-0.0615692138671875,0.85980224609375,0.271759033203125
1758447542283166000,12.665166015625,-0.0638580322265625,0.8491058349609375,0.2677001953125
1758447542293138700,12.675138671875,-0.067230224609375,0.8363037109375,0.2691802978515625
1758447542303111000,12.68511083984375,-0.0713653564453125,0.8396453857421875,0.2657012939453125
1758447542313083000,12.695082763671875,-0.074981689453125,0.8744049072265625,0.263916015625
1758447542323055900,12.705055908203125,-0.0785369873046875,0.934600830078125,0.25726318359375
1758447542333027800,12.71502783203125,-0.08306884765625,1.0081024169921875,0.246124267578125
1758447542343000800,12.725000732421876,-0.0896453857421875,1.0671234130859375,0.2364349365234375
1758447542352972800,12.734972900390625,-0.08966064453125,1.1013031005859375,0.22064208984375
1758447542362945800,12.74494580078125,-0.0791778564453125,1.1161041259765625,0.1988067626953125
1758447542372918000,12.75491796875,-0.0705413818359375,1.108367919921875,0.1665496826171875
1758447542382891000,12.76489111328125,-0.065704345703125,1.09222412109375,0.130950927734375
1758447542392862700,12.77486279296875,-0.06280517578125,1.07257080078125,0.0981597900390625
1758447542402835000,12.7848349609375,-0.048614501953125,1.0598602294921875,0.0546112060546875
1758447542412808000,12.794807861328126,-0.015380859375,1.0536956787109375,0.0284271240234375
1758447542422780000,12.80477978515625,0.010040283203125,1.03857421875,0.0367279052734375
1758447542432753000,12.8147529296875,0.0415802001953125,1.0206756591796875,0.0509490966796875
1758447542442724900,12.824724853515624,0.053955078125,1.0196075439453125,0.0732879638671875
1758447542452697900,12.83469775390625,0.0453338623046875,1.01776123046875,0.1135101318359375
1758447542462669800,12.844669921875,0.0184173583984375,1.0099029541015625,0.1479949951171875
1758447542472642800,12.854642822265625,-0.01898193359375,0.991912841796875,0.1628265380859375
1758447542482614800,12.86461474609375,-0.06402587890625,0.96856689453125,0.182220458984375
1758447542492586800,12.874586669921875,-0.0995330810546875,0.945465087890625,0.1846160888671875
1758447542502560000,12.88456005859375,-0.127288818359375,0.92822265625,0.1797943115234375
1758447542512531700,12.89453173828125,-0.1508331298828125,0.91900634765625,0.1835784912109375
