time,seconds_elapsed,z,y,x
1758447529629359400,0.011359375,-0.23329903185367584,-0.1033591479063034,0.5549372434616089
1758447529639332600,0.02133251953125,-0.23405857384204865,-0.08853679150342941,0.4668920934200287
1758447529649304300,0.03130419921875,-0.230895534157753,-0.08938314020633698,0.33807605504989624
1758447529659277300,0.04127734375,-0.22449995577335358,-0.10580658912658691,0.20316137373447418
1758447529669249500,0.05124951171875,-0.2229478657245636,-0.14690156280994415,0.09465513378381729
1758447529679222500,0.061222412109375,-0.22444455325603485,-0.16325336694717407,0.033186715096235275
1758447529689194500,0.071194580078125,-0.22462458908557892,-0.14191053807735443,0.01679575815796852
1758447529699166500,0.08116650390625,-0.22577667236328125,-0.1046406552195549,0.0337478443980217
1758447529709139700,0.0911396484375,-0.22505202889442444,-0.070467509329319,0.07464121282100677
1758447529719111400,0.101111328125,-0.21214768290519714,-0.03850425034761429,0.12799657881259918
1758447529729084400,0.11108447265625,-0.18995103240013123,-0.020565729588270187,0.17272570729255676
1758447529739056600,0.121056640625,-0.16781190037727356,-0.03678304702043533,0.1967519372701645
1758447529749029400,0.131029296875,-0.15391765534877777,-0.060686782002449036,0.19163255393505096
1758447529759001600,0.141001708984375,-0.13347816467285156,-0.09008035808801651,0.15915636718273163
1758447529768974600,0.150974609375,-0.11533883959054947,-0.11786404997110367,0.10388485342264175
1758447529778946300,0.1609462890625,-0.11039308458566666,-0.12724557518959045,0.03596172854304314
1758447529788919600,0.17091943359375,-0.121715247631073,-0.1225336417555809,-0.034083668142557144
1758447529798891500,0.1808916015625,-0.14220081269741058,-0.1285579800605774,-0.09595795720815659
1758447529808863500,0.190863525390625,-0.16173404455184937,-0.14471164345741272,-0.14511245489120483
1758447529818836500,0.20083642578125,-0.18028108775615692,-0.16591359674930573,-0.17790980637073517
1758447529828808400,0.210808349609375,-0.20162153244018555,-0.18725883960723877,-0.19464804232120514
1758447529838781700,0.22078173828125,-0.22539770603179932,-0.210533007979393,-0.19553062319755554
1758447529848753400,0.23075341796875,-0.251494824886322,-0.2416784018278122,-0.18282227218151093
1758447529858726400,0.240726318359375,-0.2719596028327942,-0.27835971117019653,-0.15253761410713196
1758447529868698600,0.25069873046875,-0.2891777455806732,-0.30580466985702515,-0.11659745126962662
1758447529878671400,0.26067138671875,-0.2978135645389557,-0.3087559640407562,-0.09254777431488037
1758447529888643600,0.2706435546875,-0.30108073353767395,-0.3000732660293579,-0.08156570047140121
1758447529898616600,0.280616455078125,-0.3061647117137909,-0.25645601749420166,-0.08313829451799393
1758447529908588300,0.29058837890625,-0.31241995096206665,-0.21879039704799652,-0.08737139403820038
1758447529918561500,0.3005615234375,-0.30988809466362,-0.1932235211133957,-0.07605481892824173
1758447529928533500,0.310533447265625,-0.29924023151397705,-0.16252580285072327,-0.04670571908354759
1758447529938505500,0.32050537109375,-0.2900906801223755,-0.14103755354881287,0.014449247159063816
1758447529948478500,0.330478515625,-0.2806292772293091,-0.12647724151611328,0.09539443254470825
1758447529958450200,0.3404501953125,-0.262403666973114,-0.10919546335935593,0.17732791602611542
1758447529968423200,0.350423095703125,-0.22990909218788147,-0.08574952185153961,0.23395390808582306
1758447529978395000,0.360394775390625,-0.18863782286643982,-0.07551553100347519,0.257177472114563
1758447529988368100,0.3703681640625,-0.14941957592964172,-0.06016586720943451,0.24083179235458374
1758447529998340000,0.380340087890625,-0.10942955315113068,-0.04614272713661194,0.2010902315378189
1758447530008313000,0.39031298828125,-0.06712470948696136,-0.05000085011124611,0.1581941694021225
1758447530018285000,0.40028515625,-0.03472362458705902,-0.056591372936964035,0.12594088912010193
1758447530028258000,0.410258056640625,-0.015527027659118176,-0.054790809750556946,0.10062647610902786
1758447530038230300,0.420230224609375,-0.006859237793833017,-0.05441583693027496,0.08617643266916275
1758447530048202000,0.430201904296875,-0.0023755396250635386,-0.054243262857198715,0.07633338868618011
1758447530058175000,0.440175048828125,-0.004143878817558289,-0.0445735938847065,0.05902497097849846
1758447530068147200,0.450147216796875,-0.008926915936172009,-0.03242212161421776,0.03055977262556553
1758447530078120000,0.460119873046875,-0.020079968497157097,-0.021767878904938698,-0.007740743923932314
1758447530088092200,0.470092041015625,-0.037816621363162994,-0.029813556000590324,-0.05174175649881363
1758447530098065200,0.480065185546875,-0.05804652348160744,-0.05946732312440872,-0.09039834141731262
1758447530108037000,0.490037109375,-0.07227525860071182,-0.08950591087341309,-0.11592020839452744
1758447530118010000,0.500010009765625,-0.07802848517894745,-0.11316783726215363,-0.13455595076084137
1758447530127982000,0.509982177734375,-0.08034010976552963,-0.13135482370853424,-0.14093928039073944
1758447530137955000,0.519955078125,-0.07876112312078476,-0.1295183151960373,-0.14088201522827148
1758447530147927000,0.529927001953125,-0.0767083615064621,-0.12218289822340012,-0.13157160580158234
1758447530157899300,0.539899169921875,-0.070298932492733,-0.11030067503452301,-0.11585895717144012
1758447530167872300,0.549872314453125,-0.053212087601423264,-0.08136143535375595,-0.10457541048526764
1758447530177844000,0.559843994140625,-0.034085799008607864,-0.06359788775444031,-0.1010587066411972
1758447530187817200,0.569817138671875,-0.017475662752985954,-0.05264297127723694,-0.10172316431999207
1758447530197789200,0.5797890625,-0.0009531453251838684,-0.03021489456295967,-0.09216960519552231
1758447530207762000,0.589761962890625,0.01070990227162838,0.00005832322858623229,-0.06571829319000244
1758447530217734100,0.599734130859375,0.01864958368241787,0.013668407686054707,-0.018252506852149963
1758447530227707100,0.60970703125,0.022172680124640465,0.017707889899611473,0.037271205335855484
1758447530237679000,0.61967919921875,0.026071548461914062,0.020596887916326523,0.08357958495616913
1758447530247652000,0.629652099609375,0.026072081178426743,0.022897591814398766,0.10674215853214264
1758447530257624000,0.6396240234375,0.03314836695790291,0.02273780293762684,0.0905245766043663
1758447530267596000,0.649595947265625,0.0450710728764534,0.023788154125213623,0.04427452012896538
1758447530277569000,0.659569091796875,0.054858721792697906,0.026867033913731575,-0.023514380678534508
1758447530287541200,0.669541259765625,0.060212474316358566,0.02063923142850399,-0.07956406474113464
1758447530297514200,0.67951416015625,0.06364955008029938,0.011728028766810894,-0.11270870268344879
1758447530307486000,0.68948583984375,0.06924378871917725,0.0027438548859208822,-0.11926726996898651
1758447530317459200,0.699459228515625,0.0744747668504715,0.0035260252188891172,-0.10683190822601318
1758447530327431200,0.70943115234375,0.06956735998392105,0.013397297821938992,-0.08536043763160706
1758447530337404000,0.71940380859375,0.06398218125104904,0.021322865039110184,-0.05806969478726387
1758447530347376000,0.729376220703125,0.06608154624700546,0.022002503275871277,-0.03341148793697357
1758447530357349000,0.73934912109375,0.0773770809173584,0.029954969882965088,-0.014945659786462784
1758447530367321000,0.749321044921875,0.08845795691013336,0.05264643207192421,-0.000036751622246811166
1758447530377294000,0.759294189453125,0.09696516394615173,0.07930494099855423,0.014597850851714611
1758447530387266000,0.76926611328125,0.09930261969566345,0.10162889212369919,0.02420147694647312
1758447530397238000,0.779238037109375,0.09701736271381378,0.12005636841058731,0.03549274802207947
1758447530407211000,0.7892109375,0.09511053562164307,0.11918524652719498,0.03990747034549713
1758447530417183200,0.799183349609375,0.08583767712116241,0.0981111228466034,0.03538621962070465
1758447530427156200,0.80915625,0.06879051774740219,0.06729195266962051,0.022478144615888596
1758447530437128200,0.819128173828125,0.05753173679113388,0.047981373965740204,0.014541392214596272
1758447530447101200,0.82910107421875,0.04730306565761566,0.045039910823106766,0.013543505221605301
1758447530457073200,0.8390732421875,0.0385601744055748,0.04135170206427574,0.020252540707588196
1758447530467046100,0.849046142578125,0.03504267334938049,0.03900359198451042,0.03405144438147545
1758447530477018000,0.85901806640625,0.03279389813542366,0.03825444355607033,0.041915759444236755
1758447530486991000,0.8689912109375,0.029032716527581215,0.034145720303058624,0.0423077754676342
1758447530496963000,0.878963134765625,0.03158029541373253,0.04000414162874222,0.02280464768409729
1758447530506935000,0.88893505859375,0.0408499613404274,0.05367681011557579,-0.005653624422848225
1758447530516908300,0.898908203125,0.05010577663779259,0.06403384357690811,-0.033659160137176514
1758447530526880000,0.9088798828125,0.06396912783384323,0.07987751811742783,-0.04981070011854172
1758447530536853000,0.91885302734375,0.0778639018535614,0.0968671590089798,-0.0516730472445488
1758447530546825200,0.9288251953125,0.09038076549768448,0.11193505674600601,-0.035050928592681885
1758447530556798200,0.938798095703125,0.10082913935184479,0.1228119358420372,-0.015089470893144608
1758447530566770200,0.948770263671875,0.10284249484539032,0.1269124150276184,0.0007789746159687638
1758447530576743200,0.9587431640625,0.10168614983558655,0.12394165247678757,0.006851247977465391
1758447530586715100,0.968715087890625,0.09867597371339798,0.09940621256828308,0.003413107246160507
1758447530596688100,0.978688232421875,0.0928678885102272,0.05919994041323662,-0.009333580732345581
1758447530606660000,0.98866015625,0.08379103988409042,0.004849083721637726,-0.02923884615302086
1758447530616633000,0.998633056640625,0.06960491091012955,-0.033351831138134,-0.060626327991485596
1758447530626605000,1.00860498046875,0.052383046597242355,-0.03911437839269638,-0.08977781981229782
1758447530636577000,1.018576904296875,0.037145502865314484,-0.02532692812383175,-0.10679116100072861
1758447530646550300,1.02855029296875,0.030290527269244194,-0.0016980315558612347,-0.09896892309188843
1758447530656522000,1.03852197265625,0.02586515247821808,0.019669309258461,-0.05804998800158501
1758447530666495000,1.048494873046875,0.01816675253212452,0.03272226080298424,-0.0005997438565827906
1758447530676467200,1.05846728515625,0.00013901700731366873,0.040221188217401505,0.05619882419705391
1758447530686440000,1.06843994140625,-0.011383416131138802,0.05861883983016014,0.08647363632917404
1758447530696412200,1.078412109375,-0.01588895171880722,0.08113666623830795,0.08365228772163391
1758447530706385200,1.08838525390625,-0.01452674437314272,0.10044112056493759,0.053590789437294006
1758447530716357000,1.098357177734375,-0.004935370292514563,0.121284618973732,0.000642620783764869
1758447530726330000,1.108330078125,0.0007254450465552509,0.11749707162380219,-0.05530346930027008
1758447530736302000,1.118302001953125,0.00694978516548872,0.09035439789295197,-0.0985337644815445
1758447530746275000,1.128275146484375,0.011027617380023003,0.05133349448442459,-0.1229645386338234
1758447530756247000,1.1382470703125,0.013188240118324757,0.023361248895525932,-0.1259579360485077
1758447530766219300,1.14821923828125,0.012415656819939613,0.015503059141337872,-0.10764896869659424
1758447530776192300,1.158192138671875,0.011686217039823532,0.020618725568056107,-0.07361643016338348
1758447530786164000,1.1681640625,0.009218531660735607,0.04062093049287796,-0.033969949930906296
1758447530796137200,1.17813720703125,-0.0007536745979450643,0.06012032926082611,-0.005361209623515606
1758447530806109200,1.188109130859375,-0.011710451915860176,0.08207648992538452,0.004825647920370102
1758447530816082000,1.19808203125,-0.023619575425982475,0.10240732878446579,-0.013254020363092422
1758447530826054100,1.20805419921875,-0.031737688928842545,0.08861828595399857,-0.03759105131030083
1758447530836027100,1.218027099609375,-0.04140043631196022,0.06389003247022629,-0.062076419591903687
1758447530845999000,1.2279990234375,-0.046670831739902496,0.04499543830752373,-0.07010451704263687
1758447530855972000,1.23797216796875,-0.0500144325196743,0.03997351601719856,-0.06115470081567764
1758447530865944000,1.247944091796875,-0.04429981857538223,0.03267139196395874,-0.04753236472606659
1758447530875916000,1.257916015625,-0.03892849013209343,0.02497006393969059,-0.039567116647958755
1758447530885889000,1.267888916015625,-0.03548555448651314,0.011500595137476921,-0.03398619592189789
1758447530895861200,1.277861328125,-0.03767148032784462,0.00481366366147995,-0.030218621715903282
1758447530905834200,1.287834228515625,-0.03754923865199089,0.013427391648292542,-0.030606910586357117
1758447530915806000,1.297805908203125,-0.035179559141397476,0.021635254845023155,-0.02792936936020851
1758447530925779200,1.307779296875,-0.03183542564511299,0.03142396733164787,-0.020626980811357498
1758447530935751200,1.317751220703125,-0.028613802045583725,0.03929787129163742,-0.0106505136936903
1758447530945724000,1.327723876953125,-0.02755013480782509,0.04346838220953941,0.0008556736283935606
1758447530955696000,1.337696044921875,-0.02966654859483242,0.041252363473176956,0.005673864856362343
1758447530965668600,1.347668701171875,-0.02851686254143715,0.034031469374895096,-0.0008556736283935606
1758447530975640600,1.357640625,-0.03032914362847805,0.031671375036239624,-0.012518455274403095
1758447530985613600,1.367613525390625,-0.032154206186532974,0.02105255424976349,-0.018215222284197807
1758447530995585800,1.377585693359375,-0.030711838975548744,0.019625898450613022,-0.017954764887690544
1758447531005557500,1.3875576171875,-0.025556758046150208,0.025306688621640205,-0.01954547129571438
1758447531015530500,1.397530517578125,-0.024629445746541023,0.02646729350090027,-0.020539363846182823
1758447531025502700,1.407502685546875,-0.034217093139886856,0.02604731358587742,-0.020248545333743095
1758447531035475700,1.417475830078125,-0.04300525784492493,0.028848959133028984,-0.020537232980132103
1758447531045447700,1.42744775390625,-0.0484602116048336,0.025248898193240166,-0.016151539981365204
1758447531055420700,1.437420654296875,-0.0444130040705204,0.011651063337922096,-0.009831325151026249
1758447531065392600,1.447392578125,-0.04205024987459183,-0.007120493799448013,-0.008082959800958633
1758447531075365600,1.45736572265625,-0.03690262511372566,-0.016349678859114647,-0.013220730237662792
1758447531085337600,1.467337646484375,-0.0311664417386055,-0.01477415207773447,-0.02087225764989853
1758447531095310600,1.477310546875,-0.026320287957787514,0.0030091057997196913,-0.02359267696738243
1758447531105282600,1.487282470703125,-0.020241089165210724,0.02502705529332161,-0.01805516704916954
1758447531115255600,1.497255615234375,-0.01290221605449915,0.03958655893802643,-0.0005020058597438037
1758447531125227800,1.507227783203125,-0.00552179804071784,0.04265877977013588,0.02052871137857437
1758447531135199500,1.517199462890625,-0.00544376764446497,0.032945964485406876,0.040590036660432816
1758447531145172500,1.52717236328125,-0.003472229465842247,0.011116833426058292,0.04999818652868271
1758447531155144700,1.537144775390625,-0.00008495483780279756,-0.01569587178528309,0.0469355508685112
1758447531165117700,1.54711767578125,-0.0025212145410478115,-0.036245089024305344,0.03455158695578575
1758447531175089700,1.557089599609375,-0.005371862091124058,-0.05456870421767235,0.02015826478600502
1758447531185062700,1.567062744140625,-0.010371148586273193,-0.0508277602493763,0.007903196848928928
1758447531195034600,1.57703466796875,-0.011736816726624966,-0.022247781977057457,0.008505071513354778
1758447531205007600,1.587007568359375,-0.007227020338177681,0.029592780396342278,0.016530506312847137
1758447531214979600,1.5969794921875,0.0020477045327425003,0.09007290005683899,0.03626586124300957
1758447531224952600,1.60695263671875,0.012925651855766773,0.11944756656885147,0.05750856548547745
1758447531234924500,1.616924560546875,0.02569630928337574,0.12549427151679993,0.06562215089797974
1758447531244897500,1.6268974609375,0.02713601291179657,0.10747745633125305,0.05415937677025795
1758447531254869800,1.636869873046875,0.024142887443304062,0.06812312453985214,0.026128539815545082
1758447531264841500,1.646841552734375,0.015979232266545296,0.026987409219145775,-0.006712763570249081
1758447531274814700,1.656814697265625,0.009646768681704998,-0.018627746030688286,-0.026583673432469368
1758447531284786700,1.66678662109375,0.008833172731101513,-0.04942001402378082,-0.026992468163371086
1758447531294759700,1.676759765625,0.004597947467118502,-0.049846917390823364,-0.00857191625982523
1758447531304731600,1.686731689453125,0.004163586068898439,-0.03051183559000492,0.02611229382455349
1758447531314704600,1.69670458984375,0.007765777874737978,0.0019534286111593246,0.05796822905540466
1758447531324676900,1.7066767578125,0.009320797398686409,0.0305738877505064,0.07366303354501724
1758447531334649600,1.716649658203125,0.005750829819589853,0.04345693066716194,0.07080519944429398
1758447531344621600,1.72662158203125,0.0029055087361484766,0.028727518394589424,0.04874010756611824
1758447531354594800,1.7365947265625,0.0016458334866911173,0.0003009371866937727,0.015246863476932049
1758447531364566500,1.74656640625,0.007096791639924049,-0.019099924713373184,-0.018516426905989647
1758447531374539500,1.75653955078125,0.020744692534208298,-0.011843875981867313,-0.04934730753302574
1758447531384511700,1.76651171875,0.03237098827958107,0.009298693388700485,-0.06822086870670319
1758447531394484700,1.776484619140625,0.04380234330892563,0.02821486070752144,-0.0738995224237442
1758447531404456700,1.786456787109375,0.05919194966554642,0.02353275567293167,-0.0680360421538353
1758447531414428700,1.7964287109375,0.0686139464378357,0.004576376173645258,-0.05236866697669029
1758447531424401700,1.806401611328125,0.0721689984202385,-0.01841442659497261,-0.03790237382054329
1758447531434373600,1.81637353515625,0.07824473828077316,-0.05041097477078438,-0.027155188843607903
1758447531444346600,1.8263466796875,0.08087620884180069,-0.07976034283638,-0.015489211305975914
1758447531454318800,1.83631884765625,0.07973664253950119,-0.09164150059223175,-0.0059782639145851135
1758447531464291600,1.84629150390625,0.07282759994268417,-0.07937045395374298,0.0032266860362142324
1758447531474263600,1.856263671875,0.06680139899253845,-0.05131405219435692,0.01269741915166378
1758447531484236800,1.86623681640625,0.06220718100667,-0.027304058894515038,0.014228204265236855
1758447531494208500,1.87620849609375,0.06214672699570656,-0.016030898317694664,0.018326809629797935
1758447531504181500,1.886181396484375,0.057847052812576294,-0.01684262976050377,0.022054435685276985
1758447531514153700,1.89615380859375,0.05096757784485817,-0.02652934566140175,0.024292822927236557
1758447531524126500,1.90612646484375,0.049193646758794785,-0.03429432585835457,0.017731325700879097
1758447531534098700,1.9160986328125,0.04616722837090492,-0.03675029054284096,0.010406834073364735
1758447531544070700,1.926070556640625,0.04236636683344841,-0.036603815853595734,0.00008548746700398624
1758447531554043600,1.936043701171875,0.03937830030918121,-0.04398210346698761,-0.00583685003221035
1758447531564015600,1.946015625,0.03732047230005264,-0.04320153221487999,-0.007616374175995588
1758447531573988600,1.955988525390625,0.037521541118621826,-0.029019134119153023,-0.007522897329181433
1758447531583960600,1.965960693359375,0.041491784155368805,-0.007701595313847065,-0.009008941240608692
1758447531593933600,1.97593359375,0.04791159927845001,0.008101335726678371,-0.00697774812579155
1758447531603905800,1.98590576171875,0.048647429794073105,0.02701563760638237,0.0014394385507330298
1758447531613878800,1.995878662109375,0.04879070818424225,0.02539617009460926,0.010787134058773518
1758447531623850500,2.0058505859375,0.046128880232572556,0.008233695290982723,0.017001086845993996
1758447531633823700,2.01582373046875,0.04071760177612305,-0.01769084669649601,0.014718492515385151
1758447531643795700,2.025795654296875,0.03605387359857559,-0.025074725970625877,0.0010519486386328936
1758447531653768400,2.0357685546875,0.0332314558327198,-0.015376559458673,-0.016287893056869507
1758447531663740700,2.04574072265625,0.02600150741636753,-0.0046546729281544685,-0.03557823225855827
1758447531673712600,2.055712646484375,0.011560249142348766,0.006991330534219742,-0.04575710371136665
1758447531683685600,2.065685546875,-0.000913197931367904,0.0132686672732234,-0.04363536089658737
1758447531693657600,2.07565771484375,-0.0067633637227118015,0.018191786482930183,-0.026984745636582375
1758447531703630600,2.085630615234375,-0.009798302315175533,0.02605183981359005,-0.009865679778158665
1758447531713602600,2.0956025390625,-0.006482666824012995,0.036857616156339645,0.0102592958137393
1758447531723575600,2.105575439453125,-0.0038314899429678917,0.05603024736046791,0.023725835606455803
1758447531733547800,2.1155478515625,-0.003251719754189253,0.07593977451324463,0.02967054396867752
1758447531743520800,2.125520751953125,0.00407596817240119,0.0883018970489502,0.031196534633636475
1758447531753492500,2.135492431640625,0.010036654770374298,0.0917203351855278,0.02991102635860443
1758447531763465700,2.1454658203125,0.012863866984844208,0.08805635571479797,0.028861476108431816
1758447531773437700,2.155437744140625,0.018519354984164238,0.08268449455499649,0.02274419367313385
1758447531783410400,2.165410400390625,0.021041102707386017,0.07213570922613144,0.010373278521001339
1758447531793382700,2.175382568359375,0.021087175235152245,0.05556019768118858,-0.00006364954606397077
1758447531803355600,2.185355712890625,0.017612814903259277,0.03591006249189377,-0.0019446401856839657
1758447531813327600,2.19532763671875,0.01877794787287712,0.021654162555933,0.003394198836758733
1758447531823299600,2.205299560546875,0.018788868561387062,0.022111427038908005,0.015022625215351582
1758447531833272600,2.2152724609375,0.01762479916214943,0.02064136229455471,0.029330192133784294
1758447531843244500,2.22524462890625,0.014484666287899017,0.018804313614964485,0.038061629980802536
1758447531853217500,2.235217529296875,0.00640863087028265,0.01275520958006382,0.04458850622177124
1758447531863189800,2.245189697265625,-0.00011158645065734163,0.011995675973594189,0.04297489672899246
1758447531873162800,2.255162841796875,-0.005285841878503561,0.01926450803875923,0.037086647003889084
1758447531883134700,2.265134765625,-0.01181937474757433,0.035353463143110275,0.020927386358380318
1758447531893107700,2.275107666015625,-0.018248511478304863,0.041365016251802444,0.0011867046123370528
1758447531903079700,2.28507958984375,-0.02257694862782955,0.02713920921087265,-0.008221977390348911
1758447531913052700,2.295052734375,-0.02239212393760681,0.013654826208949089,-0.009701895527541637
1758447531923024600,2.305024658203125,-0.019039470702409744,0.006001166999340057,0.0006474144756793976
1758447531932997600,2.31499755859375,-0.016444221138954163,0.00484402384608984,0.01768738403916359
1758447531942969600,2.324969482421875,-0.012735236436128616,0.005253617651760578,0.029982665553689003
1758447531952942600,2.334942626953125,-0.010838532820343971,0.008950884453952312,0.029288379475474358
1758447531962914800,2.344914794921875,-0.011287009343504906,0.01044225413352251,0.023035278543829918
1758447531972886500,2.354886474609375,-0.016869528219103813,0.0062331282533705235,0.018020546063780785
1758447531982859500,2.364859619140625,-0.02274126559495926,-0.00037390782381407917,0.013798370026051998
1758447531992831700,2.374831787109375,-0.025430791079998016,0.00166607357095927,0.007555654272437096
1758447532002804500,2.384804443359375,-0.025359418243169785,0.0034357442054897547,-0.0009339706157334149
1758447532012776700,2.394776611328125,-0.025120001286268234,0.007129814941436052,-0.007237406447529793
1758447532022749700,2.404749755859375,-0.020359599962830544,0.0012926984345540404,-0.009878729470074177
1758447532032721400,2.414721435546875,-0.01726287603378296,-0.004481301177293062,-0.009149023331701756
1758447532042694700,2.424694580078125,-0.013648967258632183,0.0027720844373106956,-0.009179649874567986
1758447532052666600,2.43466650390625,-0.006850449368357658,0.021937789395451546,-0.00586747657507658
1758447532062639600,2.4446396484375,-0.004236822947859764,0.037508491426706314,0.0023217438720166683
1758447532072611600,2.454611572265625,-0.0028972530271857977,0.037939924746751785,0.016569921746850014
1758447532082584600,2.46458447265625,-0.002638659905642271,0.02076413482427597,0.030845796689391136
1758447532092556800,2.474556884765625,-0.006050968077033758,0.003082342678681016,0.046713441610336304
1758447532102528500,2.484528564453125,-0.010241186246275902,-0.014095579273998737,0.05148955434560776
1758447532112501500,2.49450146484375,-0.01227344386279583,-0.02828463539481163,0.04018869996070862
1758447532122473700,2.5044736328125,-0.011966381222009659,-0.02593492716550827,0.02106666937470436
1758447532132446500,2.514446533203125,-0.012328571639955044,-0.006213687360286713,-0.00039760995423421264
1758447532142418700,2.524418701171875,-0.0062158177606761456,0.0148636344820261,-0.01677764765918255
1758447532152391700,2.5343916015625,-0.0035958001390099525,0.021094366908073425,-0.024294421076774597
1758447532162363600,2.54436376953125,-0.00023329291434492916,0.02094442956149578,-0.02586248889565468
1758447532172336600,2.554336669921875,-0.0005012069013901055,0.017729729413986206,-0.014933941885828972
1758447532182308600,2.56430859375,-0.0021760689560323954,0.011408715508878231,-0.00021917815320193768
1758447532192281600,2.574281494140625,-0.00361683894880116,0.010855576954782009,0.015300393104553223
1758447532202253600,2.584253662109375,-0.0028807413764297962,0.010282465256750584,0.025658758357167244
1758447532212226600,2.5942265625,-0.00036724991514347494,0.012587963603436947,0.03080451861023903
1758447532222198500,2.604198486328125,0.001455151243135333,0.015091867186129093,0.025473933666944504
1758447532232171500,2.614171630859375,0.00010892329009948298,0.009820406325161457,0.024826254695653915
1758447532242143700,2.624143798828125,-0.00021278657368384302,0.0018618159228935838,0.025784458965063095
1758447532252115500,2.634115478515625,0.00044607947347685695,0.015842879191040993,0.029032183811068535
1758447532262088400,2.64408837890625,-0.0024000408593565226,0.030843133106827736,0.03705708682537079
1758447532272060700,2.654060791015625,-0.009079781360924244,0.0356978103518486,0.03780649974942207
1758447532282033700,2.66403369140625,-0.016758207231760025,0.02713548019528389,0.038175880908966064
1758447532292005600,2.674005615234375,-0.022647256031632423,0.009062470868229866,0.03581631928682327
1758447532301978600,2.683978515625,-0.021200893446803093,-0.017059676349163055,0.02966388501226902
1758447532311950600,2.69395068359375,-0.02137133479118347,-0.04079803079366684,0.019964121282100677
1758447532321923600,2.703923583984375,-0.02244432270526886,-0.05043813958764076,0.009455819614231586
1758447532331895600,2.7138955078125,-0.018501512706279755,-0.04403909668326378,0.001261805766262114
1758447532341868500,2.72386865234375,-0.012148009613156319,-0.024704813957214355,-0.003795803524553776
1758447532351840500,2.733840576171875,-0.0062155514024198055,0.0025009745731949806,-0.003635747591033578
1758447532361813500,2.7438134765625,-0.0017193368403241038,0.01888447441160679,-0.004454935900866985
1758447532371785700,2.75378564453125,0.003953462466597557,0.022066419944167137,-0.004338289611041546
1758447532381758700,2.7637587890625,0.004238686989992857,0.02093164622783661,0.0002687129599507898
1758447532391730400,2.77373046875,0.006342317909002304,0.008218248374760151,0.014959508553147316
1758447532401702700,2.78370263671875,0.008833705447614193,0.00497984467074275,0.035579830408096313
1758447532411675600,2.793675537109375,0.006706638727337122,0.006428338121622801,0.05652053281664848
1758447532421647600,2.803647705078125,0.0014631407102569938,0.00929416622966528,0.06889011710882187
1758447532431620600,2.81362060546875,-0.006807039491832256,0.011739746667444706,0.06926988810300827
1758447532441592600,2.823592529296875,-0.013954431749880314,0.01661093533039093,0.054247524589300156
1758447532451565600,2.833565673828125,-0.014482003636658192,0.007258445490151644,0.02870461530983448
1758447532461537500,2.84353759765625,-0.008281365968286991,0.0017443705582991242,-0.0021260015200823545
1758447532471510500,2.853510498046875,-0.007782289292663336,-0.0016700683627277613,-0.030913973227143288
1758447532481482500,2.863482421875,-0.00939083844423294,-0.009927731938660145,-0.04647109657526016
1758447532491455500,2.87345556640625,-0.011783688329160213,-0.013205816969275475,-0.04540875926613808
1758447532501427700,2.883427734375,-0.008578041568398476,-0.02117053233087063,-0.034332938492298126
1758447532511400700,2.893400634765625,-0.008027832955121994,-0.03326234966516495,-0.011512845754623413
1758447532521372700,2.90337255859375,-0.004139351192861795,-0.04089869558811188,0.014658837579190731
1758447532531344600,2.9133447265625,-0.0005352954030968249,-0.046067092567682266,0.04006379470229149
1758447532541317600,2.923317626953125,0.00010066748654935509,-0.03945979103446007,0.05549148842692375
1758447532551289600,2.93328955078125,0.0011536814272403717,-0.02821885421872139,0.05360277369618416
1758447532561262600,2.9432626953125,0.005533515941351652,-0.011434282176196575,0.033968884497880936
1758447532571234800,2.95323486328125,0.010990599170327187,0.002755572786554694,0.010230266489088535
1758447532581207600,2.96320751953125,0.01672145538032055,0.014634869061410427,-0.011385279707610607
1758447532591179500,2.973179443359375,0.02388961985707283,0.024176442995667458,-0.023540746420621872
1758447532601152800,2.98315283203125,0.02478870376944542,0.028250547125935555,-0.024222249165177345
1758447532611124500,2.99312451171875,0.020540961995720863,0.03645974025130272,-0.010596717707812786
1758447532621097500,3.003097412109375,0.014188523404300213,0.04730812832713127,0.004652542527765036
1758447532631069700,3.013069580078125,0.007738613523542881,0.05349598079919815,0.022029934450984
1758447532641042700,3.023042724609375,-0.0008327704854309559,0.058108311146497726,0.038301315158605576
1758447532651014700,3.0330146484375,0.0059838565066456795,0.053946323692798615,0.0471334233880043
1758447532660987600,3.042987548828125,0.009593771770596504,0.05065225809812546,0.04020734131336212
1758447532670959600,3.052959716796875,0.009128783829510212,0.05419798940420151,0.02370612882077694
1758447532680931600,3.062931640625,0.004992095287889242,0.04653208330273628,0.004530036821961403
1758447532690904600,3.072904541015625,-0.0002311623829882592,0.033123865723609924,-0.009077384136617184
1758447532700876800,3.082876708984375,-0.0038714371621608734,0.012709936127066612,-0.018981147557497025
1758447532710849500,3.092849609375,-0.003939880523830652,0.005631254054605961,-0.03081383928656578
1758447532720821500,3.102821533203125,-0.0015504923649132252,0.017341971397399902,-0.047564055770635605
1758447532730794800,3.112794677734375,-0.0062608253210783005,0.02930835448205471,-0.060389306396245956
1758447532740766500,3.122766357421875,-0.005918875336647034,0.02311543934047222,-0.059182628989219666
1758447532750739500,3.132739501953125,-0.002901514060795307,-0.001505484920926392,-0.04013783112168312
1758447532760711700,3.142711669921875,0.0019283948931843042,-0.03199228644371033,-0.0056919739581644535
1758447532770684700,3.1526845703125,0.005898102652281523,-0.05018886923789978,0.021917283535003662
1758447532780656600,3.16265673828125,0.006304234731942415,-0.06515450030565262,0.03910665586590767
1758447532790629600,3.172629638671875,0.002907106652855873,-0.06373637169599533,0.03370363637804985
1758447532800601600,3.1826015625,0.0025158883072435856,-0.04631743207573891,0.008607069961726665
1758447532810573600,3.192573486328125,0.0015912387752905488,-0.03537210449576378,-0.026202576234936714
1758447532820546600,3.202546630859375,0.0006777744856663048,-0.02618579752743244,-0.05639483407139778
1758447532830518800,3.212518798828125,0.002171275205910206,-0.013017531484365463,-0.07060998678207397
1758447532840491500,3.222491455078125,0.0032567796297371387,0.007634750101715326,-0.06718729436397552
1758447532850463700,3.232463623046875,-0.0001430117554264143,0.014728612266480923,-0.04542766883969307
1758447532860436700,3.242436767578125,-0.004790494218468666,0.012629775330424309,-0.015343536622822285
1758447532870408400,3.252408447265625,-0.008802812546491623,0.007925300858914852,0.010026268661022186
1758447532880381700,3.262381591796875,-0.01161697506904602,0.009167665615677834,0.02111061103641987
1758447532890353700,3.272353759765625,-0.006389189511537552,0.010463826358318329,0.014603976160287857
1758447532900326400,3.282326416015625,0.0033212280832231045,0.0010277138790115714,0.003990747034549713
1758447532910298600,3.292298583984375,0.007895207032561302,-0.008481369353830814,-0.009164736606180668
1758447532920271600,3.302271728515625,0.012235361151397228,-0.015180550515651703,-0.01938435062766075
1758447532930243600,3.31224365234375,0.015037539415061474,-0.011299526318907738,-0.020731909200549126
1758447532940216600,3.322216552734375,0.011984224431216717,-0.0030863373540341854,-0.013108078390359879
1758447532950188500,3.3321884765625,0.004710865672677755,-0.0008663262706249952,-0.0018924422329291701
1758447532960161300,3.342161376953125,-0.0040914141573011875,0.003605121048167348,0.016112390905618668
1758447532970134300,3.35213427734375,-0.011960788629949093,0.007918642833828926,0.026700852438807487
1758447532980106200,3.362106201171875,-0.018753448501229286,0.006822219584137201,0.024281371384859085
1758447532990079200,3.372079345703125,-0.020552413538098335,0.005904760677367449,0.0166785791516304
1758447533000051200,3.38205126953125,-0.016138490289449692,-0.0013004215434193611,0.0028692898340523243
1758447533010024200,3.392024169921875,-0.009735452011227608,-0.001056476030498743,-0.007422229740768671
1758447533019996200,3.40199609375,-0.006971622817218304,0.009733853861689568,-0.019710320979356766
1758447533029969200,3.41196923828125,-0.005644835997372866,0.04056819900870323,-0.027946412563323975
1758447533039941400,3.42194140625,-0.0005797701887786388,0.06879504024982452,-0.02611282654106617
1758447533049914000,3.4319140625,-0.001311873085796833,0.07661781460046768,-0.01480264775454998
1758447533059886300,3.44188623046875,-0.002174471039324999,0.05977358669042587,0.008126103319227695
1758447533069859300,3.451859375,-0.004342017695307732,0.03460964187979698,0.03208549693226814
1758447533079831000,3.4618310546875,-0.010607636533677578,0.00971387978643179,0.0476042702794075
1758447533089803300,3.47180322265625,-0.015176822431385517,-0.0031433289404958487,0.04783942922949791
1758447533099776300,3.4817763671875,-0.01739523559808731,-0.002043177140876651,0.033427197486162186
1758447533109748200,3.491748291015625,-0.022368954494595528,-0.005843241699039936,0.01152482908219099
1758447533119721200,3.50172119140625,-0.021863486617803574,-0.016756609082221985,-0.013353356160223484
1758447533129693200,3.511693115234375,-0.022949257865548134,-0.016224242746829987,-0.03381974995136261
1758447533139666400,3.52166650390625,-0.020202206447720528,-0.01600106991827488,-0.043227363377809525
1758447533149638100,3.53163818359375,-0.01757073774933815,-0.009062204509973526,-0.03604535385966301
1758447533159611100,3.541611083984375,-0.01589188165962696,-0.002767557045444846,-0.011410313658416271
1758447533169583400,3.551583251953125,-0.0225662961602211,0.0007832356495782733,0.019290607422590256
1758447533179556000,3.56155615234375,-0.027940554544329643,0.000003728425554072601,0.04267129674553871
1758447533189528300,3.5715283203125,-0.030586138367652893,0.0007267766632139683,0.050581686198711395
1758447533199501300,3.581501220703125,-0.025899507105350494,0.003951598424464464,0.042871832847595215
1758447533209473000,3.59147314453125,-0.02257321961224079,0.006593986880034208,0.02533411793410778
1758447533219446300,3.6014462890625,-0.023852068930864334,0.003828826593235135,0.008111721836030483
1758447533229418200,3.611418212890625,-0.023008912801742554,-0.0019829897210001945,-0.0011680624447762966
1758447533239390200,3.62139013671875,-0.024660073220729828,0.004487959202378988,-0.009754359722137451
1758447533249363200,3.63136328125,-0.023083748295903206,0.01667644828557968,-0.013832991011440754
1758447533259335200,3.641335205078125,-0.020417923107743263,0.03344317898154259,-0.019418172538280487
1758447533269308400,3.651308349609375,-0.013040700927376747,0.050284743309020996,-0.024080835282802582
1758447533279280000,3.661280029296875,-0.0047177900560200214,0.06708502769470215,-0.017588581889867783
1758447533289253000,3.671253173828125,0.0003097256412729621,0.08791227638721466,0.0006703176186420023
1758447533299225300,3.681225341796875,0.010378604754805565,0.10034631192684174,0.029619144275784492
1758447533309198000,3.691197998046875,0.021104486659169197,0.1022464781999588,0.057072874158620834
1758447533319170300,3.70117041015625,0.030413033440709114,0.11012783646583557,0.06682989746332169
1758447533329143300,3.711143310546875,0.03531191870570183,0.12159726768732071,0.07059640437364578
1758447533339115300,3.721115234375,0.037456829100847244,0.13574132323265076,0.07743247598409653
1758447533349088300,3.731088134765625,0.02954697236418724,0.15153013169765472,0.0932772159576416
1758447533359060200,3.741060302734375,0.017793377861380577,0.1541307121515274,0.10705960541963577
1758447533369032200,3.7510322265625,0.01110271830111742,0.14535532891750336,0.11423389613628387
1758447533379005200,3.761005126953125,0.00814927276223898,0.12600426375865936,0.10551977157592773
1758447533388977400,3.770977294921875,0.008522648364305496,0.1000395119190216,0.08561423420906067
1758447533398950400,3.780950439453125,0.00008442220860160887,0.072465680539608,0.0557844378054142
1758447533408922000,3.790922119140625,-0.011109376326203346,0.029415680095553398,0.018862903118133545
1758447533418895400,3.800895263671875,-0.015482819639146328,-0.01353498362004757,-0.01756594330072403
1758447533428867300,3.810867431640625,-0.016201606020331383,-0.04265585169196129,-0.04869003966450691
1758447533438840000,3.820840087890625,-0.0191984623670578,-0.051649078726768494,-0.06764721870422363
1758447533448812300,3.830812255859375,-0.01834971271455288,-0.04374002292752266,-0.0714787095785141
1758447533458785300,3.840785400390625,-0.016385631635785103,-0.03160879388451576,-0.0528901107609272
1758447533468757200,3.85075732421875,-0.01438399963080883,-0.01737978868186474,-0.02802923694252968
1758447533478730200,3.860730224609375,-0.008320514112710953,-0.0014620753936469555,0.0005781722720712423
1758447533488702200,3.8707021484375,-0.004247741773724556,0.007801996544003487,0.02250797301530838
1758447533498675500,3.880675537109375,-0.000821318884845823,0.014512363821268082,0.02623586542904377
1758447533508647200,3.890647216796875,0.001958222361281514,0.0160687156021595,0.008492820896208286
1758447533518619400,3.900619384765625,0.0020064255222678185,0.015451127663254738,-0.018630409613251686
1758447533528592400,3.91059228515625,0.007564176339656115,0.019783824682235718,-0.047035686671733856
1758447533538564000,3.920564208984375,0.011839082464575768,0.027047330513596535,-0.064472995698452
1758447533548537300,3.930537353515625,0.011691809631884098,0.026681412011384964,-0.06609592586755753
1758447533558509000,3.940509033203125,0.014136059209704399,0.020307401195168495,-0.04913904890418053
1758447533568481300,3.950481201171875,0.013610883615911007,0.00857138354331255,-0.018558237701654434
1758447533578454300,3.960454345703125,0.008273109793663025,-0.006896255537867546,0.00814927276223898
1758447533588426200,3.97042626953125,0.004790760576725006,-0.016439693048596382,0.024081634357571602
1758447533598399200,3.980399169921875,0.0027486486360430717,-0.020249078050255775,0.027112577110528946
1758447533608371200,3.99037109375,-0.00037630466977134347,-0.017249027267098427,0.02388961985707283
1758447533618343200,4.00034326171875,-0.000922252656891942,-0.008723982609808445,0.01296506728976965
1758447533628316200,4.010316162109375,-0.0038301581516861916,0.0032021848019212484,-0.0034144388046115637
1758447533638288400,4.020288330078125,-0.0028154938481748104,0.013768009841442108,-0.012751215137541294
1758447533648261400,4.030261474609375,-0.0014703312190249562,0.02063523791730404,-0.013835920952260494
1758447533658233000,4.040233154296875,0.0000428768944402691,0.02828889526426792,-0.01113520935177803
1758447533668206300,4.050206298828125,0.0019971043802797794,0.024922126904129982,-0.005893042776733637
1758447533678178300,4.06017822265625,0.0008673915872350335,0.010074205696582794,0.005249356850981712
1758447533688151000,4.070151123046875,-0.0006476807757280767,0.007292267866432667,0.014490791596472263
1758447533698123300,4.080123291015625,-0.0016397082945331931,0.010871822014451027,0.017544372007250786
1758447533708096300,4.09009619140625,0.0036477316170930862,0.01101669855415821,0.014301175251603127
1758447533718068200,4.100068115234375,0.007893343456089497,0.01775050163269043,0.011004181578755379
1758447533728041200,4.110041259765625,0.007741809356957674,0.03554334491491318,0.004145476501435041
1758447533738013200,4.12001318359375,0.014490259811282158,0.05306588113307953,-0.009064601734280586
1758447533747985200,4.129985107421875,0.02341610938310623,0.06608101725578308,-0.027289677411317825
1758447533757958100,4.139958251953125,0.025954369455575943,0.06318775564432144,-0.04848204925656319
1758447533767930400,4.149930419921875,0.029995182529091835,0.02600177377462387,-0.07033621519804001
1758447533777903400,4.1599033203125,0.024094151332974434,-0.01673903316259384,-0.08963481336832047
1758447533787875000,4.169875,0.01642078533768654,-0.048825331032276154,-0.08536363393068314
1758447533797848300,4.179848388671875,0.007761782966554165,-0.06143779307603836,-0.06228547915816307
1758447533807820300,4.1898203125,-0.0032716933637857437,-0.052917275577783585,-0.02707529254257679
1758447533817793000,4.19979296875,-0.009092298336327076,-0.039139412343502045,0.01332565862685442
1758447533827765200,4.20976513671875,-0.01068247202783823,-0.025293106213212013,0.04721997678279877
1758447533837738200,4.21973828125,-0.008166050538420677,-0.018096445128321648,0.06636703759431839
1758447533847710200,4.229710205078125,-0.0022807312197983265,-0.017242902889847755,0.06836254894733429
1758447533857683200,4.23968310546875,0.005234443116933107,-0.024213993921875954,0.058928295969963074
1758447533867656200,4.24965625,0.008536762557923794,-0.03743152692914009,0.043827906250953674
1758447533877628400,4.25962841796875,0.00737269502133131,-0.025009479373693466,0.026206303387880325
1758447533887601200,4.26960107421875,0.005471197888255119,0.0021662150975316763,0.012022574432194233
1758447533897573000,4.279572998046875,0.003379551460966468,0.024464329704642296,0.006511961575597525
1758447533907545300,4.28954541015625,0.00567093538120389,0.02835041470825672,0.013029249384999275
1758447533917518000,4.29951806640625,0.006795854307711124,0.019249327480793,0.029895314946770668
1758447533927490300,4.309490234375,0.002008289797231555,0.006115682888776064,0.046535808593034744
1758447533937463300,4.31946337890625,-0.00355798308737576,-0.01793745532631874,0.05856291204690933
1758447533947435300,4.329435302734375,-0.010906177572906017,-0.03581925109028816,0.058157313615083694
1758447533957408300,4.339408203125,-0.018455972895026207,-0.04554324969649315,0.04228806868195534
1758447533967380500,4.34938037109375,-0.02383555844426155,-0.046480681747198105,0.015242336317896843
1758447533977353500,4.359353515625,-0.01961977407336235,-0.031503599137067795,-0.012888900935649872
1758447533987325700,4.36932568359375,-0.017951037734746933,-0.010377539321780205,-0.029932066798210144
1758447533997298700,4.379298583984375,-0.018495919182896614,0.008783104829490185,-0.029805298894643784
1758447534007270700,4.389270751953125,-0.01864985004067421,0.01782400533556938,-0.01501223910599947
1758447534017243600,4.39924365234375,-0.019659722223877907,0.019424298778176308,0.003456783015280962
1758447534027215600,4.409215576171875,-0.01667698100209236,0.01913854107260704,0.022772423923015594
1758447534037187600,4.4191875,-0.009242766536772251,0.026563700288534164,0.02851233445107937
1758447534047160600,4.42916064453125,-0.002186188939958811,0.02292821928858757,0.02503131702542305
1758447534057132800,4.4391328125,0.0005776396137662232,-0.003733751829713583,0.015620504505932331
1758447534067105500,4.44910546875,0.003052248852327466,-0.030165892094373703,0.008349009789526463
1758447534077077500,4.459077392578125,0.002428004052489996,-0.04637069255113602,0.004185956437140703
1758447534087050800,4.46905078125,-0.007119162008166313,-0.04701491445302963,0.0017273263074457645
1758447534097022500,4.4790224609375,-0.014757107943296432,-0.04782051965594292,0.00043276368523947895
1758447534106995500,4.488995361328125,-0.012793825939297676,-0.06078612059354782,0.004187554586678743
1758447534116967700,4.4989677734375,-0.012229768559336662,-0.0731506422162056,0.006842193193733692
1758447534126940400,4.5089404296875,-0.012197011150419712,-0.0744079202413559,0.01575446128845215
1758447534136912600,4.51891259765625,-0.006681871134787798,-0.058872636407613754,0.015036473982036114
1758447534146885600,4.5288857421875,-0.0031214910559356213,-0.02245018072426319,0.014671620912849903
1758447534156857600,4.538857666015625,0.00008229167724493891,0.019406454637646675,0.01907622255384922
1758447534166830600,4.54883056640625,0.0012064119800925255,0.04652968421578407,0.020902352407574654
1758447534176802600,4.558802490234375,0.004351605195552111,0.0461115688085556,0.02581588365137577
1758447534186774500,4.5687744140625,0.008379369974136353,0.022519158199429512,0.033781398087739944
1758447534196747500,4.57874755859375,0.007254450581967831,-0.007911186665296555,0.032820798456668854
1758447534206719700,4.5887197265625,0.0054664043709635735,-0.043166644871234894,0.025294438004493713
1758447534216692700,4.598692626953125,-0.0029862024821341038,-0.06912767142057419,0.01938275247812271
1758447534226664400,4.60866455078125,-0.006824882701039314,-0.07271228730678558,0.01305454969406128
1758447534236637700,4.6186376953125,-0.013129117898643017,-0.05979542434215546,0.009321330115199089
1758447534246609700,4.628609619140625,-0.011699533089995384,-0.033068470656871796,0.0092936335131526
1758447534256582400,4.63858251953125,-0.008014250546693802,-0.0029526466969400644,0.010275540873408318
1758447534266554600,4.6485546875,-0.003370496677234769,0.02101047709584236,0.012807940132915974
1758447534276527600,4.658527587890625,-0.002254898427054286,0.030544593930244446,0.022718895226716995
1758447534286499600,4.66849951171875,-0.00022317290131468326,0.01968502067029476,0.027661189436912537
1758447534296472600,4.67847265625,-0.00395852280780673,0.01133973989635706,0.027995681390166283
1758447534306444500,4.688444580078125,-0.008786833845078945,-0.0007257114048115909,0.02564357779920101
1758447534316416500,4.69841650390625,-0.013598100282251835,-0.012077702209353447,0.01944560371339321
1758447534326389500,4.708389404296875,-0.020016051828861237,-0.010027866810560226,0.013435914181172848
1758447534336361700,4.71836181640625,-0.02443823032081127,0.0015773903578519821,-0.0013930995482951403
1758447534346334700,4.728334716796875,-0.02768888510763645,0.01441276166588068,-0.021158015355467796
1758447534356306400,4.738306396484375,-0.024212928488850594,0.028926722705364227,-0.04321591183543205
1758447534366279700,4.74827978515625,-0.021520204842090607,0.03867815434932709,-0.05559907853603363
1758447534376251600,4.758251708984375,-0.017980065196752548,0.052392102777957916,-0.06254220753908157
1758447534386224400,4.768224365234375,-0.013777864165604115,0.06978840380907059,-0.060202352702617645
1758447534396196600,4.778196533203125,-0.00959936436265707,0.08271139115095139,-0.046842340379953384
1758447534406169600,4.788169677734375,-0.00833915639668703,0.08278382569551468,-0.023514647036790848
1758447534416141600,4.7981416015625,-0.0025092302821576595,0.07209523022174835,0.004779042676091194
1758447534426114600,4.808114501953125,-0.0016884441720321774,0.044811148196458817,0.03039013035595417
1758447534436086500,4.81808642578125,-0.006367884576320648,0.017948640510439873,0.04303615167737007
1758447534446058500,4.82805859375,-0.017779262736439705,0.004218180663883686,0.03786615654826164
1758447534456031500,4.838031494140625,-0.023600934073328972,0.0008719189208932221,0.014763499610126019
1758447534466003700,4.848003662109375,-0.030705181881785393,-0.0004601942200679332,-0.013925136998295784
1758447534475976700,4.857976806640625,-0.03145726025104523,-0.003756921272724867,-0.04176129400730133
1758447534485948700,4.86794873046875,-0.035361453890800476,-0.011011638678610325,-0.05694637447595596
1758447534495921700,4.877921630859375,-0.035893552005290985,-0.0170852430164814,-0.04899816960096359
1758447534505893600,4.8878935546875,-0.038049645721912384,-0.015545936301350594,-0.022063223645091057
1758447534515866600,4.89786669921875,-0.03726987540721893,-0.010368485003709793,0.004474110435694456
1758447534525838600,4.907838623046875,-0.03437661752104759,0.014051103964447975,0.03026789054274559
1758447534535811600,4.9178115234375,-0.03768745809793472,0.03827415034174919,0.047624778002500534
1758447534545783600,4.927783447265625,-0.0466761589050293,0.07046537846326828,0.06034722924232483
1758447534555756500,4.937756591796875,-0.04392324760556221,0.09951940178871155,0.05945906415581703
1758447534565728800,4.947728759765625,-0.05553383380174637,0.097824826836586,0.060441240668296814
1758447534575701800,4.95770166015625,-0.07280097156763077,0.06729115545749664,0.06137441098690033
1758447534585673500,4.967673583984375,-0.08846275508403778,0.0171440988779068,0.06554758548736572
1758447534595645700,4.977645751953125,-0.09747222810983658,0.02022484503686428,0.05994988605380058
1758447534605618700,4.98761865234375,-0.10318443924188614,0.02816346101462841,0.060080114752054214
1758447534615590700,4.997590576171875,-0.10079265385866165,0.007607852108776569,0.0643443688750267
1758447534625563600,5.007563720703125,-0.11283280700445175,-0.03826989233493805,0.04408969730138779
1758447534635535600,5.01753564453125,-0.1428263932466507,-0.03617185354232788,-0.001981125446036458
1758447534645508600,5.027508544921875,-0.19426162540912628,-0.04152906686067581,-0.06274167448282242
1758447534655480600,5.03748046875,-0.2641584277153015,-0.08858712017536163,-0.1396753340959549
1758447534665453600,5.04745361328125,-0.2563268542289734,-0.16202965378761292,-0.21379058063030243
1758447534675425500,5.057425537109375,-0.2530463635921478,-0.35257217288017273,-0.2633357644081116
1758447534685398500,5.0673984375,-0.3418055474758148,-0.5660120248794556,-0.2953120768070221
1758447534695370800,5.077370849609375,-0.4272807538509369,-0.7458789944648743,-0.33258354663848877
1758447534705343700,5.08734375,-0.534755289554596,-0.9605377316474915,-0.31655505299568176
1758447534715315500,5.0973154296875,-0.6634680032730103,-1.1721954345703125,-0.2380535751581192
1758447534725287700,5.10728759765625,-0.7631458640098572,-1.2730098962783813,-0.15048830211162567
1758447534735260400,5.117260498046875,-0.8183281421661377,-1.254047155380249,-0.06963740289211273
1758447534745232600,5.127232666015625,-0.8077300786972046,-1.1584659814834595,0.00301656243391335
1758447534755205600,5.13720556640625,-0.7355579137802124,-1.0342580080032349,0.05453621223568916
1758447534765177600,5.147177490234375,-0.6302972435951233,-0.8980568051338196,0.07959815859794617
1758447534775150600,5.157150634765625,-0.5175089240074158,-0.7669035792350769,0.08434737473726273
1758447534785122600,5.16712255859375,-0.42006227374076843,-0.6377727389335632,0.07447769492864609
1758447534795095800,5.177095703125,-0.3423440158367157,-0.48834463953971863,0.05530639737844467
1758447534805067500,5.187067626953125,-0.2818836271762848,-0.3108353614807129,0.02497246116399765
1758447534815040500,5.19704052734375,-0.23782800137996674,-0.12747406959533691,-0.001493500778451562
1758447534825012700,5.2070126953125,-0.21567024290561676,0.01631239429116249,-0.008400674909353256
1758447534834985500,5.2169853515625,-0.22938178479671478,0.07232879102230072,0.004727643448859453
1758447534844957700,5.226957763671875,-0.301074355840683,-0.0018367822049185634,0.037224333733320236
1758447534854929700,5.2369296875,-0.4207589328289032,-0.20346949994564056,0.07397089898586273
1758447534864902400,5.24690234375,-0.5665169358253479,-0.4464866816997528,0.09394221007823944
1758447534874874600,5.25687451171875,-0.6880502700805664,-0.579666018486023,0.05325070396065712
1758447534884847600,5.26684765625,-0.739698588848114,-0.6301377415657043,-0.05579002946615219
1758447534894819600,5.276819580078125,-0.7415100336074829,-0.6462453007698059,-0.20714226365089417
1758447534904792600,5.28679248046875,-0.7259097695350647,-0.6607869863510132,-0.363275945186615
1758447534914764500,5.2967646484375,-0.7025232315063477,-0.658112645149231,-0.5033276081085205
1758447534924737800,5.30673779296875,-0.6799798607826233,-0.6395983695983887,-0.6115728616714478
1758447534934709500,5.31670947265625,-0.6510493755340576,-0.6338675022125244,-0.6969559192657471
1758447534944682500,5.3266826171875,-0.6084561347961426,-0.6664574146270752,-0.7834436893463135
1758447534954654700,5.33665478515625,-0.582647979259491,-0.7074716687202454,-0.8693844079971313
1758447534964626400,5.34662646484375,-0.5937565565109253,-0.7408370971679688,-0.9113715291023254
1758447534974598400,5.356598388671875,-0.6411669254302979,-0.8264957666397095,-0.9170688390731812
1758447534984571400,5.3665712890625,-0.3982272744178772,-0.6825841665267944,-0.5960391759872437
1758447534994543400,5.37654345703125,0.18084780871868134,-0.8241721987724304,-0.25286582112312317
1758447535004515300,5.386515380859375,0.7441213130950928,-0.44772982597351074,0.1085887923836708
1758447535014488600,5.396488525390625,1.0769280195236206,0.013105415739119053,0.3409802317619324
1758447535024460300,5.406460205078125,0.9596905708312988,0.48667269945144653,0.31191182136535645
1758447535034433300,5.416433349609375,0.717284619808197,0.5317839980125427,0.07805405557155609
1758447535044405500,5.426405517578125,0.5127596855163574,0.28622910380363464,-0.2594992220401764
1758447535054378200,5.436378173828125,0.3467656672000885,0.040224120020866394,-0.7063688635826111
1758447535064350500,5.4463505859375,0.048528920859098434,0.19202163815498352,-1.053153157234192
1758447535074323500,5.456323486328125,-0.04147420451045036,0.16803774237632751,-1.2456618547439575
1758447535084295200,5.466295166015625,0.04031280055642128,0.3097964823246002,-1.3017674684524536
1758447535094268400,5.476268310546875,0.09253579378128052,0.4435654580593109,-1.2722389698028564
1758447535104240400,5.486240478515625,0.022775087505578995,0.7747867703437805,-1.2043306827545166
1758447535114213400,5.49621337890625,0.07026084512472153,1.0351169109344482,-1.0745905637741089
1758447535124185300,5.506185302734375,0.061097707599401474,1.1471771001815796,-0.8239519596099854
1758447535134157300,5.5161572265625,-0.16336283087730408,1.2607004642486572,-0.48820510506629944
1758447535144130600,5.526130615234375,-0.6346776485443115,1.4735193252563477,-0.1153084859251976
1758447535154102300,5.536102294921875,-1.2991701364517212,1.730452299118042,0.24604971706867218
1758447535164075300,5.5460751953125,-1.9233874082565308,1.755125641822815,0.5684677362442017
1758447535174047500,5.556047607421875,-2.3798651695251465,1.5806976556777954,0.8592191338539124
1758447535184020200,5.566020263671875,-2.756617307662964,1.257030963897705,1.2008196115493774
1758447535193992400,5.575992431640625,-3.1263532638549805,1.1487854719161987,1.5693645477294922
1758447535203965400,5.58596533203125,-3.2726328372955322,1.1247520446777344,1.819963812828064
1758447535213937400,5.5959375,-3.2999346256256104,0.94136643409729,1.8970468044281006
1758447535223910400,5.605910400390625,-3.130394458770752,0.7228516936302185,1.7683011293411255
1758447535233882400,5.61588232421875,-2.9073143005371094,-0.0551370233297348,1.5702439546585083
1758447535243855400,5.62585546875,-2.4873249530792236,-1.3175723552703857,1.330939769744873
1758447535253827300,5.635827392578125,-1.4218188524246216,-2.7867319583892822,1.2630012035369873
1758447535263799600,5.645799560546875,-0.42964616417884827,-3.007408618927002,1.1258955001831055
1758447535273772300,5.655772216796875,-0.1352560967206955,-2.5148119926452637,0.7351991534233093
1758447535283744300,5.665744140625,0.01635580323636532,-2.2314884662628174,0.15332111716270447
1758447535293717500,5.675717529296875,0.11742036789655685,-2.163109064102173,-0.4072183668613434
1758447535303689200,5.685689208984375,0.11144690215587616,-2.0835776329040527,-0.8789411783218384
1758447535313662200,5.695662109375,0.025850504636764526,-1.921509027481079,-1.2322087287902832
1758447535323634400,5.705634521484375,-0.052075453102588654,-1.863391399383545,-1.4557123184204102
1758447535333607400,5.715607421875,-0.07568676769733429,-1.8974436521530151,-1.5580767393112183
1758447535343579400,5.725579345703125,-0.023303724825382233,-1.969186782836914,-1.539470911026001
1758447535353552400,5.735552490234375,0.1230926364660263,-2.0696537494659424,-1.422838807106018
1758447535363524400,5.7455244140625,0.4361211061477661,-1.8353028297424316,-1.3719937801361084
1758447535373497300,5.755497314453125,0.7097691893577576,-2.1222898960113525,-1.1383991241455078
1758447535383469300,5.76546923828125,0.8695708513259888,-2.3923439979553223,-0.8085601925849915
1758447535393441500,5.775441650390625,1.0095691680908203,-2.6495437622070312,-0.3716262876987457
1758447535403414300,5.785414306640625,1.1384350061416626,-2.861560344696045,0.018248511478304863
1758447535413386200,5.79538623046875,1.214815616607666,-3.0926272869110107,0.28333690762519836
1758447535423359500,5.805359375,1.23058021068573,-3.3746135234832764,0.4298355281352997
1758447535433331200,5.815331298828125,1.2189980745315552,-3.6087746620178223,0.4744706451892853
1758447535443304200,5.82530419921875,1.2681543827056885,-3.8000078201293945,0.43836510181427
1758447535453276400,5.8352763671875,1.435314655303955,-4.050166130065918,0.4030340015888214
1758447535463249400,5.84524951171875,1.7027686834335327,-4.261000156402588,0.42092859745025635
1758447535473221400,5.855221435546875,2.0136499404907227,-4.2844014167785645,0.4799724519252777
1758447535483194400,5.8651943359375,2.2770895957946777,-4.215689659118652,0.5696032643318176
1758447535493166300,5.875166259765625,2.4169070720672607,-4.17035436630249,0.6769728660583496
1758447535503139300,5.885139404296875,2.479856252670288,-4.199186325073242,0.8132577538490295
1758447535513111300,5.895111328125,2.54313325881958,-4.241441249847412,0.9402218461036682
1758447535523083500,5.90508349609375,2.614499092102051,-4.3509016036987305,1.04923677444458
1758447535533056300,5.91505615234375,2.7099783420562744,-4.51716423034668,1.1737232208251953
1758447535543028500,5.925028564453125,2.8787457942962646,-4.533699989318848,1.2817351818084717
1758447535553001500,5.93500146484375,3.1431541442871094,-4.3812127113342285,1.3001621961593628
1758447535562973200,5.94497314453125,3.4132020473480225,-4.154477119445801,1.2192318439483643
1758447535572946400,5.954946533203125,3.5841856002807617,-3.9417974948883057,1.0603152513504028
1758447535582918400,5.96491845703125,3.6106648445129395,-3.7594363689422607,0.8643611669540405
1758447535592891400,5.974891357421875,3.5435290336608887,-3.633826732635498,0.6881850361824036
1758447535602863400,5.98486328125,3.4414730072021484,-3.617335081100464,0.6218217611312866
1758447535612836400,5.99483642578125,3.3419442176818848,-3.617439031600952,0.6850792765617371
1758447535622808600,6.00480859375,3.2920522689819336,-3.546840190887451,0.8283876776695251
1758447535632781300,6.01478125,3.2665445804595947,-3.383171796798706,0.981868326663971
1758447535642753300,6.024753173828125,3.2004528045654297,-3.2059078216552734,1.0938228368759155
1758447535652725500,6.0347255859375,3.084859609603882,-3.112189769744873,1.1876460313796997
1758447535662698200,6.0446982421875,2.991917371749878,-3.022033214569092,1.252866506576538
1758447535672670500,6.05467041015625,2.9546334743499756,-2.868626594543457,1.2622219324111938
1758447535682643500,6.0646435546875,2.965650796890259,-2.6578445434570312,1.229719638824463
1758447535692615200,6.074615234375,2.9536800384521484,-2.3994696140289307,1.1638906002044678
1758447535702588400,6.08458837890625,2.8764922618865967,-2.179178237915039,1.0766843557357788
1758447535712560400,6.094560302734375,2.7659764289855957,-2.0442917346954346,0.9815101623535156
1758447535722533400,6.104533447265625,2.6434473991394043,-1.9882034063339233,0.9157910346984863
1758447535732505300,6.11450537109375,2.5188937187194824,-2.0090157985687256,0.913573682308197
1758447535742478300,6.124478271484375,2.390228033065796,-2.0150535106658936,0.9823863506317139
1758447535752450600,6.134450439453125,2.276693105697632,-1.9491060972213745,1.1152520179748535
1758447535762423300,6.14442333984375,2.2003684043884277,-1.8774467706680298,1.2965773344039917
1758447535772395300,6.154395263671875,2.158457040786743,-1.8574773073196411,1.495624303817749
1758447535782367500,6.164367431640625,2.1074583530426025,-1.8909975290298462,1.7257366180419922
1758447535792340200,6.17434033203125,2.0306572914123535,-1.897133469581604,1.9840656518936157
1758447535802312400,6.1843125,1.917035698890686,-1.9168990850448608,2.248222827911377
1758447535812285400,6.194285400390625,1.764285922050476,-1.9715203046798706,2.5009944438934326
1758447535822257400,6.20425732421875,1.6013611555099487,-2.0248467922210693,2.7259695529937744
1758447535832230400,6.21423046875,1.475670576095581,-2.0556232929229736,2.895993232727051
1758447535842202400,6.224202392578125,1.3483632802963257,-2.095032215118408,2.996630907058716
1758447535852175400,6.23417529296875,1.1729618310928345,-2.0543346405029297,3.0437612533569336
1758447535862147300,6.244147216796875,0.959372341632843,-1.9308756589889526,3.033614158630371
1758447535872120300,6.254120361328125,0.7422163486480713,-1.6243876218795776,2.9155936241149902
1758447535882092300,6.26409228515625,0.5155951976776123,-1.1798501014709473,2.6811881065368652
1758447535892064300,6.274064208984375,0.2182529717683792,-1.0370087623596191,2.4016127586364746
1758447535902037500,6.28403759765625,-0.07999496906995773,-1.2068815231323242,2.1380910873413086
1758447535912009200,6.29400927734375,-0.2217521071434021,-1.073822259902954,1.762740969657898
1758447535921982200,6.303982177734375,-0.23608896136283875,-0.8842991590499878,1.2914363145828247
1758447535931954400,6.313954345703125,-0.3375820219516754,-0.8883761763572693,1.0040687322616577
1758447535941927400,6.323927490234375,-0.5139573216438293,-0.8372232913970947,0.8218821287155151
1758447535951899400,6.3338994140625,-0.6726495027542114,-0.9174768328666687,0.791999340057373
1758447535961872400,6.343872314453125,-0.9373639822006226,-0.8175212144851685,1.0075678825378418
1758447535971844900,6.353844970703125,-1.1044927835464478,-0.5660498142242432,1.238882064819336
1758447535981817900,6.36381787109375,-1.0975488424301147,-0.12116371095180511,1.3163938522338867
1758447535991789800,6.373789794921875,-1.057556390762329,0.0755528137087822,1.2702593803405762
1758447536001762800,6.3837626953125,-1.108357310295105,0.08956370502710342,1.2489567995071411
1758447536011735000,6.393735107421875,-1.2730908393859863,0.010186591185629368,1.4159966707229614
1758447536021706800,6.403706787109375,-1.4508507251739502,-0.051471978425979614,1.6746788024902344
1758447536031679700,6.4136796875,-1.5194876194000244,0.013319267891347408,1.7233645915985107
1758447536041652000,6.42365185546875,-1.4253655672073364,0.15555843710899353,1.4654552936553955
1758447536051624700,6.433624755859375,-1.24560546875,0.2463218867778778,0.9998329281806946
1758447536061597000,6.443596923828125,-0.97991943359375,0.5082690715789795,0.43786177039146423
1758447536071570000,6.45356982421875,-0.7254522442817688,0.5665486454963684,0.05043840780854225
1758447536081542000,6.4635419921875,-0.6179822683334351,0.43335410952568054,-0.06943260133266449
1758447536091515000,6.473514892578125,-0.6768903136253357,0.11980362981557846,-0.00005805691034765914
1758447536101486800,6.48348681640625,-0.5614383220672607,-0.013877999037504196,0.05212099105119705
1758447536111460000,6.493460205078125,-0.34393659234046936,-0.1327255517244339,0.11668454110622406
1758447536121431800,6.503431884765625,-0.18477144837379456,-0.1999109834432602,0.2691643536090851
1758447536131404000,6.513404052734375,-0.33343735337257385,-0.21110771596431732,0.40216341614723206
1758447536141377000,6.523376953125,-0.5426204204559326,-0.23033760488033295,0.38929396867752075
1758447536151348700,6.5333486328125,-0.6776410937309265,-0.1596623659133911,0.3308381140232086
1758447536161322000,6.543322021484375,-0.7699928283691406,-0.05324937403202057,0.21682685613632202
1758447536171293700,6.553293701171875,-0.828387975692749,0.09859315305948257,0.018274610862135887
1758447536181266700,6.5632666015625,-0.8670440316200256,0.19848325848579407,-0.12970232963562012
1758447536191239000,6.573239013671875,-0.8992357850074768,0.29358741641044617,-0.23019805550575256
1758447536201212000,6.5832119140625,-0.9718601703643799,0.19764836132526398,-0.40281376242637634
1758447536211183900,6.593183837890625,-0.7997560501098633,0.08812293410301208,-0.571284830570221
1758447536221156900,6.603156982421875,-0.4298669397830963,0.23104387521743774,-0.6543309688568115
1758447536231128800,6.61312890625,0.12291952967643738,0.8263490796089172,-0.9534292221069336
1758447536241101800,6.623101806640625,0.3103983402252197,0.5251580476760864,-1.2159264087677002
1758447536251073800,6.63307373046875,-0.36289218068122864,0.3397570252418518,-0.7005908489227295
1758447536261046000,6.6430458984375,-0.8701287508010864,0.2985134720802307,-0.21911850571632385
1758447536271018800,6.653018798828125,-0.9757859706878662,0.1437489092350006,-0.24754641950130463
1758447536280990700,6.66299072265625,-0.9030662178993225,0.17326872050762177,-0.47741183638572693
1758447536290964000,6.6729638671875,-0.8194341659545898,0.3099147081375122,-0.6287683248519897
1758447536300935700,6.682935791015625,-0.8254268169403076,0.4335029721260071,-0.6927891373634338
1758447536310908700,6.69290869140625,-0.8758654594421387,0.5069034099578857,-0.7289990782737732
1758447536320881000,6.702880859375,-0.9197533130645752,0.5949211716651917,-0.7386045455932617
1758447536330854000,6.71285400390625,-1.0431561470031738,0.5125210881233215,-0.8791595101356506
1758447536340825900,6.722825927734375,-1.1301952600479126,0.21968016028404236,-1.1573882102966309
1758447536350798800,6.732798828125,-0.9577459692955017,-0.11098723858594894,-1.2569550275802612
1758447536360770800,6.742770751953125,-0.5206258893013,-0.42001697421073914,-1.1657804250717163
1758447536370743800,6.752743896484375,-0.041488319635391235,-0.7372205257415771,-0.859783947467804
1758447536380715800,6.7627158203125,0.47693485021591187,-0.9003207683563232,-0.3721722364425659
1758447536390688000,6.77268798828125,1.019587516784668,-0.8419548869132996,-0.050280746072530746
1758447536400660700,6.78266064453125,1.6891170740127563,-0.64495450258255,-0.033557161688804626
1758447536410633000,6.792633056640625,1.9673700332641602,-0.7450070381164551,-0.01605832949280739
1758447536420606000,6.80260595703125,2.08451771736145,-0.8430294990539551,0.013018596917390823
1758447536430577700,6.81257763671875,2.217179298400879,-0.7574669122695923,0.04391312971711159
1758447536440551000,6.822551025390625,2.1043524742126465,-0.530348002910614,0.13674107193946838
1758447536450523000,6.83252294921875,1.839890956878662,-0.49752190709114075,0.18294158577919006
1758447536460496000,6.842495849609375,1.7077043056488037,-0.4150773584842682,0.1142975464463234
1758447536470467800,6.8524677734375,1.8124459981918335,-0.08545577526092529,-0.16830645501613617
1758447536480440800,6.86244091796875,2.149919033050537,0.4008672535419464,-0.5740960240364075
1758447536490413000,6.8724130859375,2.6601319313049316,0.7802590727806091,-1.0153895616531372
1758447536500384800,6.882384765625,3.0911595821380615,1.0349528789520264,-1.4512230157852173
1758447536510357800,6.892357666015625,3.433147668838501,1.070172905921936,-1.8400421142578125
1758447536520330000,6.902330078125,3.7057535648345947,0.922162652015686,-2.19677734375
1758447536530302700,6.912302734375,3.9807143211364746,0.6936432123184204,-2.514120101928711
1758447536540275000,6.92227490234375,4.297229290008545,0.2585247755050659,-2.717237710952759
1758447536550248000,6.932248046875,4.619945526123047,-0.3434327244758606,-2.7306272983551025
1758447536560219600,6.9422197265625,4.890211582183838,-0.9348387718200684,-2.6562297344207764
1758447536570193000,6.95219287109375,5.040213108062744,-1.2618741989135742,-2.4849002361297607
1758447536580164900,6.962164794921875,4.906193256378174,-1.3159805536270142,-2.1956419944763184
1758447536590137900,6.972137939453125,4.430582046508789,-1.2414692640304565,-1.7845810651779175
1758447536600109800,6.98210986328125,3.626784324645996,-1.1547346115112305,-1.276027798652649
1758447536610082800,6.992082763671875,2.5939650535583496,-1.1706323623657227,-0.7981547117233276
1758447536620055000,7.002054931640625,1.4048662185668945,-1.0803509950637817,-0.4192521274089813
1758447536630026800,7.01202685546875,0.4339495897293091,-1.0276901721954346,-0.12551051378250122
1758447536639999700,7.021999755859375,-0.04685565456748009,-1.0181243419647217,0.13179291784763336
1758447536649972000,7.031971923828125,-0.1096830889582634,-1.064709186553955,0.341047078371048
1758447536659944700,7.04194482421875,0.04169684648513794,-1.081987738609314,0.5092248916625977
1758447536669917000,7.0519169921875,0.2737481892108917,-1.0623924732208252,0.6697381138801575
1758447536679890000,7.061889892578125,0.5629794597625732,-1.0335967540740967,0.8407421112060547
1758447536689862000,7.07186181640625,0.8783349990844727,-0.8740348219871521,1.042832612991333
1758447536699835000,7.0818349609375,1.1408624649047852,-0.5327837467193604,1.2852356433868408
1758447536709806800,7.091806884765625,1.4038488864898682,-0.3029484152793884,1.4780054092407227
1758447536719780000,7.101780029296875,1.626752495765686,-0.4215933084487915,1.4713003635406494
1758447536729751800,7.111751708984375,1.5867177248001099,-0.8958365321159363,1.2283521890640259
1758447536739724800,7.121724853515625,1.419189214706421,-1.3804851770401,0.8452692031860352
1758447536749697000,7.131697021484375,1.2861323356628418,-1.5598012208938599,0.47853994369506836
1758447536759668700,7.141668701171875,1.204064130783081,-1.3798242807388306,0.17582403123378754
1758447536769642000,7.15164208984375,1.2260046005249023,-0.9340621829032898,-0.006512227933853865
1758447536779614000,7.161614013671875,1.3440462350845337,-0.393500953912735,-0.044080108404159546
1758447536789586700,7.171586669921875,1.5161075592041016,0.03879693150520325,-0.02448776550590992
1758447536799559000,7.181558837890625,1.7080186605453491,0.3679042458534241,0.03868294879794121
1758447536809532000,7.191531982421875,1.830368995666504,0.5606017708778381,0.0885932520031929
1758447536819503900,7.20150390625,2.013223886489868,0.6355261206626892,0.13695572316646576
1758447536829476900,7.211476806640625,2.326111316680908,0.6869410872459412,0.2032599151134491
1758447536839448800,7.22144873046875,2.7191731929779053,0.8146266341209412,0.30063092708587646
1758447536849421800,7.231421875,3.11431884765625,0.9541512131690979,0.41084054112434387
1758447536859393800,7.241393798828125,3.3765554428100586,0.9211533069610596,0.49032843112945557
1758447536869366800,7.25136669921875,3.536789655685425,0.7290099859237671,0.5573335886001587
1758447536879338800,7.2613388671875,3.6297078132629395,0.3992565870285034,0.6434990763664246
1758447536889310700,7.271310791015625,3.6548728942871094,-0.04845275357365608,0.7589526772499084
1758447536899284000,7.281283935546875,3.6511547565460205,-0.46309414505958557,0.895718514919281
1758447536909255700,7.291255615234375,3.651063919067383,-0.8044165968894958,1.0141083002090454
1758447536919228700,7.301228759765625,3.6372528076171875,-1.1663609743118286,1.0409338474273682
1758447536929201000,7.311200927734375,3.6300907135009766,-1.548281192779541,1.0852839946746826
1758447536939174000,7.321173828125,4.138237476348877,-2.303694725036621,1.0663398504257202
1758447536949145900,7.331145751953125,6.180017471313477,-3.5938541889190674,1.0110232830047607
1758447536959118800,7.341118896484375,7.32468843460083,-5.006513595581055,0.8580923080444336
1758447536969091000,7.351091064453125,6.384946823120117,-7.122798919677734,-0.22863397002220154
1758447536979064000,7.36106396484375,4.576536655426025,-9.078115463256836,-1.3105133771896362
1758447536989036000,7.3710361328125,2.9186930656433105,-9.941458702087402,-1.8079164028167725
1758447536999009000,7.381009033203125,1.7868753671646118,-9.106247901916504,-1.8130505084991455
1758447537008981000,7.39098095703125,0.8225082159042358,-7.298947811126709,-1.514574646949768
1758447537018953000,7.400952880859375,0.0012120045721530914,-5.3845295906066895,-1.206904411315918
1758447537028926200,7.41092626953125,-0.568909764289856,-3.658521890640259,-0.9108074903488159
1758447537038898000,7.42089794921875,-0.9371395111083984,-1.634521484375,-0.40158525109291077
1758447537048871200,7.43087109375,-1.2041834592819214,0.6287656426429749,0.36283573508262634
1758447537058843100,7.440843017578125,-1.3727471828460693,2.3507027626037598,1.001659870147705
1758447537068816100,7.450816162109375,-1.404077410697937,3.4669182300567627,1.3842597007751465
1758447537078788000,7.4607880859375,-1.238348364830017,4.143187999725342,1.5590929985046387
1758447537088761000,7.470760986328125,-1.0003464221954346,4.465567588806152,1.567559003829956
1758447537098733300,7.4807333984375,-0.7990937232971191,4.34642219543457,1.3832207918167114
1758447537108706000,7.4907060546875,-0.6546894311904907,3.9264767169952393,1.0872368812561035
1758447537118678000,7.500677978515625,-0.46639859676361084,3.327810287475586,0.7734429836273193
1758447537128651300,7.5106513671875,-0.22705312073230743,2.682347536087036,0.4831485450267792
1758447537138623000,7.520623046875,-0.09117145836353302,2.076822519302368,0.1765742301940918
1758447537148595200,7.53059521484375,-0.0311062540858984,1.6286665201187134,-0.13131381571292877
1758447537158568200,7.540568115234375,0.021765749901533127,1.3057878017425537,-0.41815730929374695
1758447537168540000,7.550539794921875,0.07807056605815887,1.0509419441223145,-0.66497403383255
1758447537178513200,7.56051318359375,0.14529621601104736,0.8423687815666199,-0.8450974225997925
1758447537188485000,7.570485107421875,0.21337273716926575,0.6413072943687439,-0.9461771845817566
1758447537198458000,7.5804580078125,0.24710433185100555,0.4291934370994568,-0.9633708000183105
1758447537208430000,7.59043017578125,0.2400197833776474,0.23996520042419434,-0.8824501633644104
1758447537218403000,7.600403076171875,0.2371518313884735,0.040945302695035934,-0.7367472648620605
1758447537228375300,7.610375244140625,0.21936404705047607,-0.15480449795722961,-0.595641553401947
1758447537238348000,7.62034814453125,0.20827624201774597,-0.3307283818721771,-0.4362476170063019
1758447537248320000,7.630320068359375,0.20627860724925995,-0.434291809797287,-0.2255215346813202
1758447537258293200,7.640293212890625,0.1761406809091568,-0.5012670755386353,-0.06573960185050964
1758447537268265000,7.650264892578125,0.13171355426311493,-0.5404208898544312,0.03724377602338791
1758447537278237200,7.6602373046875,0.08659907430410385,-0.5540655851364136,0.10512614995241165
1758447537288210200,7.670210205078125,0.057501375675201416,-0.5180764198303223,0.1492890864610672
1758447537298182000,7.680181884765625,0.0511646494269371,-0.41040778160095215,0.1752924621105194
1758447537308155100,7.690155029296875,0.05089034512639046,-0.2620465159416199,0.1673399955034256
1758447537318127000,7.700127197265625,0.034080471843481064,-0.08673116564750671,0.14552710950374603
1758447537328100000,7.71010009765625,0.005057609174400568,0.061462029814720154,0.13199664652347565
1758447537338072000,7.720072021484375,-0.02665850892663002,0.14548715949058533,0.13634532690048218
1758447537348045000,7.730045166015625,-0.04717736691236496,0.2049848437309265,0.19007912278175354
1758447537358017300,7.740017333984375,-0.06568580120801926,0.2069699615240097,0.25626879930496216
1758447537367990000,7.749989990234375,-0.08776900172233582,0.19293110072612762,0.33069881796836853
1758447537377962200,7.759962158203125,-0.0840941071510315,0.15889191627502441,0.38257694244384766
1758447537387935200,7.769935302734375,-0.07643298804759979,0.08636285364627838,0.40133756399154663
1758447537397907000,7.779906982421875,-0.07529795169830322,-0.0005217132274992764,0.3848440945148468
1758447537407879200,7.789879150390625,-0.06143619492650032,-0.07922478020191193,0.3364347517490387
1758447537417852200,7.79985205078125,-0.04012345150113106,-0.1337154507637024,0.2665430009365082
1758447537427824000,7.80982421875,-0.017039969563484192,-0.16987718641757965,0.17915616929531097
1758447537437797000,7.819797119140625,0.0044410875998437405,-0.17997722327709198,0.09098077565431595
1758447537447769000,7.82976904296875,0.01997237652540207,-0.1618243157863617,0.010758372023701668
1758447537457742300,7.839742431640625,0.02942366898059845,-0.12041909247636795,-0.05126212164759636
1758447537467714000,7.849714111328125,0.03267965093255043,-0.061172544956207275,-0.09989011287689209
1758447537477687000,7.85968701171875,0.0313081219792366,0.0036842171102762222,-0.13792377710342407
1758447537487659300,7.8696591796875,0.03539340943098068,0.07297860085964203,-0.17312730848789215
1758447537497632000,7.879632080078125,0.036008335649967194,0.13172607123851776,-0.2064836621284485
1758447537507604200,7.889604248046875,0.03755483031272888,0.1909598410129547,-0.22387011349201202
1758447537517577200,7.8995771484375,0.04746631905436516,0.25432655215263367,-0.22325146198272705
1758447537527549000,7.909548828125,0.03959401324391365,0.2933959364891052,-0.21693497896194458
1758447537537522200,7.919522216796875,0.03184368461370468,0.3301544785499573,-0.2070770114660263
1758447537547494100,7.929494140625,0.003972637467086315,0.3989551067352295,-0.17096935212612152
1758447537557466000,7.939466064453125,0.010610300116240978,0.48554378747940063,-0.09632334113121033
1758447537567439000,7.949439208984375,0.06361892074346542,0.5586510300636292,0.002403769176453352
1758447537577411000,7.9594111328125,0.11077737808227539,0.5794734954833984,0.08223707973957062
1758447537587384000,7.969384033203125,0.136735737323761,0.5278294682502747,0.1371551901102066
1758447537597356000,7.97935595703125,0.15670013427734375,0.39896923303604126,0.16855518519878387
1758447537607329000,7.9893291015625,0.14325197041034698,0.18465134501457214,0.15981203317642212
1758447537617301000,7.999301025390625,0.11535029113292694,-0.0850943848490715,0.1365959346294403
1758447537627274000,8.00927392578125,0.09368734061717987,-0.34533077478408813,0.1305428296327591
1758447537637246200,8.01924609375,0.08152468502521515,-0.5371529459953308,0.14351429045200348
1758447537647219200,8.02921923828125,0.045352835208177567,-0.6343204975128174,0.15275439620018005
1758447537657191000,8.03919091796875,-0.003748132847249508,-0.6298865675926208,0.14808213710784912
1758447537667164200,8.0491640625,-0.0467991977930069,-0.5299466848373413,0.14012674987316132
1758447537677136100,8.05913623046875,-0.09223724901676178,-0.37092721462249756,0.13605983555316925
1758447537687108000,8.069108154296876,-0.13728675246238708,-0.19403977692127228,0.13545475900173187
1758447537697081000,8.0790810546875,-0.15938512980937958,-0.037814222276210785,0.13806013762950897
1758447537707053300,8.08905322265625,-0.16488242149353027,0.08176010847091675,0.12502636015415192
1758447537717026000,8.099026123046874,-0.16116757690906525,0.1689719706773758,0.09089395403862
1758447537726998000,8.108998046875,-0.14002901315689087,0.23312966525554657,0.03814365714788437
1758447537736971300,8.11897119140625,-0.10963115841150284,0.27753254771232605,-0.028981316834688187
1758447537746943000,8.12894287109375,-0.07755684107542038,0.2887708246707916,-0.09312435239553452
1758447537756916000,8.138916015625,-0.041121069341897964,0.25631994009017944,-0.14126019179821014
1758447537766888200,8.14888818359375,-0.011960788629949093,0.1904333233833313,-0.17186950147151947
1758447537776861200,8.158861083984375,0.016626913100481033,0.11008069664239883,-0.18946845829486847
1758447537786833200,8.168833251953124,0.046418897807598114,0.03398806229233742,-0.19891682267189026
1758447537796806100,8.17880615234375,0.06622615456581116,-0.031182685866951942,-0.19870777428150177
1758447537806778000,8.188778076171875,0.08270899206399918,-0.06815881282091141,-0.1878252923488617
1758447537816751000,8.198751220703125,0.09109049290418625,-0.08493832498788834,-0.16099154949188232
1758447537826723000,8.20872314453125,0.08701159805059433,-0.09002070128917694,-0.11539237201213837
1758447537836695300,8.2186953125,0.07134129106998444,-0.10469525307416916,-0.06493479013442993
1758447537846668000,8.22866796875,0.04680372402071953,-0.13648514449596405,-0.016804013401269913
1758447537856640000,8.238639892578124,0.02947852946817875,-0.17918945848941803,0.020599551498889923
1758447537866613200,8.24861328125,0.01557949185371399,-0.20700430870056152,0.048830922693014145
1758447537876585000,8.2585849609375,0.00009747169679030776,-0.21251599490642548,0.06727065145969391
1758447537886558000,8.268557861328125,-0.021941518411040306,-0.20324845612049103,0.07884048670530319
1758447537896530200,8.2785302734375,-0.04499703645706177,-0.19429224729537964,0.08844251185655594
1758447537906503200,8.288503173828126,-0.061115819960832596,-0.18349552154541016,0.08917222172021866
1758447537916475100,8.29847509765625,-0.06593214720487595,-0.16713359951972961,0.08107834309339523
1758447537926448000,8.3084482421875,-0.06018397957086563,-0.14081943035125732,0.06463439017534256
1758447537936420000,8.318420166015626,-0.054783888161182404,-0.11553804576396942,0.04223879799246788
1758447537946393000,8.32839306640625,-0.05572478100657463,-0.09435872733592987,0.018734272569417953
1758447537956365000,8.338364990234375,-0.049005892127752304,-0.07788574695587158,0.0051534827798604965
1758447537966337800,8.348337890625,-0.037224601954221725,-0.06336512416601181,-0.007838748395442963
1758447537976309800,8.358309814453126,-0.026789270341396332,-0.05336602032184601,-0.01888580620288849
1758447537986282000,8.368281982421875,-0.014085192233324051,-0.049070872366428375,-0.032954487949609756
1758447537996254700,8.378254638671875,-0.00869016069918871,-0.05278012529015541,-0.04102013632655144
1758447538006226700,8.388226806640626,-0.006970025133341551,-0.05705156922340393,-0.04435601457953453
1758447538016200000,8.398199951171875,-0.007364172954112291,-0.058346398174762726,-0.04707616567611694
1758447538026171600,8.408171630859375,-0.01380795706063509,-0.05059127137064934,-0.04461114481091499
1758447538036144600,8.41814453125,-0.01648576557636261,-0.035654399544000626,-0.0354035310447216
1758447538046116900,8.428116943359376,-0.02160489372909069,-0.022877618670463562,-0.023058181628584862
1758447538056089900,8.43808984375,-0.02653706818819046,-0.008276306092739105,-0.016813067719340324
1758447538066061800,8.448061767578125,-0.02587367594242096,0.012343218550086021,-0.012554673478007317
1758447538076034800,8.458034912109374,-0.021217137575149536,0.037457894533872604,-0.016890833154320717
1758447538086006800,8.4680068359375,-0.018204836174845695,0.06787465512752533,-0.018544921651482582
1758447538095979800,8.477979736328125,-0.0182863287627697,0.088791124522686,-0.02081553265452385
1758447538105951700,8.48795166015625,-0.02291703410446644,0.09633932262659073,-0.018577147275209427
1758447538115924700,8.4979248046875,-0.03207750990986824,0.09629563987255096,-0.016042616218328476
1758447538125896700,8.507896728515625,-0.04168938845396042,0.09625676274299622,-0.009502158500254154
1758447538135868700,8.51786865234375,-0.051840029656887054,0.09682747721672058,0.006666691042482853
1758447538145842000,8.527842041015624,-0.054011836647987366,0.088119737803936,0.032407741993665695
1758447538155813600,8.537813720703125,-0.05240701511502266,0.06582721322774887,0.060569070279598236
1758447538165786600,8.54778662109375,-0.046671897172927856,0.03057415410876274,0.09079435467720032
1758447538175758800,8.5577587890625,-0.03748505562543869,-0.018442656844854355,0.10766947269439697
1758447538185731800,8.56773193359375,-0.022722622379660606,-0.06966563314199448,0.11258140206336975
1758447538195703800,8.577703857421875,-0.008233162574470043,-0.10815603286027908,0.10169839859008789
1758447538205676800,8.5876767578125,0.005227252375334501,-0.13702470064163208,0.08326106518507004
1758447538215648800,8.597648681640624,0.016473781317472458,-0.15872599184513092,0.06215951219201088
1758447538225621800,8.607621826171876,0.028242556378245354,-0.165683776140213,0.03952530398964882
1758447538235593700,8.61759375,0.03608769550919533,-0.14433906972408295,0.015178952366113663
1758447538245566700,8.627566650390625,0.03766695037484169,-0.08887287974357605,-0.009604424238204956
1758447538255538700,8.63753857421875,0.030410369858145714,-0.01950499229133129,-0.029167473316192627
1758447538265511700,8.64751171875,0.018691662698984146,0.0484229251742363,-0.03557769954204559
1758447538275484000,8.65748388671875,0.0015401060227304697,0.09424634277820587,-0.03284210339188576
1758447538285455600,8.66745556640625,-0.017284447327256203,0.10717252641916275,-0.025901105254888535
1758447538295428900,8.677428955078126,-0.02798343077301979,0.0933896005153656,-0.022940203547477722
1758447538305400800,8.68740087890625,-0.03413186967372894,0.07326063513755798,-0.02527952380478382
1758447538315373600,8.69737353515625,-0.03700009733438492,0.05663584917783737,-0.03194728121161461
1758447538325345800,8.707345703125,-0.0365351065993309,0.04357543960213661,-0.03590713441371918
1758447538335318800,8.71731884765625,-0.0318218469619751,0.03158162906765938,-0.032771795988082886
1758447538345290800,8.727290771484375,-0.024354608729481697,0.01287585124373436,-0.025295769795775414
1758447538355263700,8.737263671875,-0.01763731613755226,-0.022395053878426552,-0.00917379092425108
1758447538365235700,8.747235595703126,-0.014554441906511784,-0.06657370179891586,0.005900233518332243
1758447538375209000,8.757208984375,-0.01022733747959137,-0.09488923102617264,0.013562147505581379
1758447538385180700,8.7671806640625,-0.009439041838049889,-0.09498190879821777,0.013916880823671818
1758447538395153700,8.777153564453124,-0.0060054282657802105,-0.06481574475765228,0.01293417438864708
1758447538405126000,8.7871259765625,-0.0009217200567945838,-0.02863617241382599,0.010305634699761868
1758447538415098600,8.7970986328125,0.003078880487009883,-0.005726329050958157,0.0062520368956029415
1758447538425070800,8.80707080078125,0.0016532903537154198,0.002286856295540929,-0.0013134710025042295
1758447538435043800,8.8170439453125,0.001487641828134656,0.009923471137881279,-0.010440390557050705
1758447538445015600,8.827015625,0.00044341632747091353,0.026876088231801987,-0.02485901117324829
1758447538454987800,8.83698779296875,-0.0029116340447217226,0.04410913959145546,-0.036865074187517166
1758447538464960800,8.846960693359375,-0.0017627463676035404,0.05679430812597275,-0.0401197224855423
1758447538474932700,8.8569326171875,-0.003988349810242653,0.06030914559960365,-0.036310337483882904
1758447538484905700,8.86690576171875,-0.004540157038718462,0.05439027026295662,-0.023621173575520515
1758447538494877700,8.876877685546875,-0.006931941956281662,0.04950416833162308,-0.007685616612434387
1758447538504851000,8.886850830078124,-0.010524014011025429,0.036380112171173096,0.004071973264217377
1758447538514822700,8.89682275390625,-0.009557552635669708,0.021408353000879288,0.010566091164946556
1758447538524795600,8.906795654296875,-0.007081877905875444,0.00714579364284873,0.011336278170347214
1758447538534767900,8.916767822265625,-0.006442719139158726,-0.009729060344398022,0.014446583576500416
1758447538544740600,8.92674072265625,-0.010392986238002777,-0.027630561962723732,0.017901236191391945
1758447538554712800,8.936712890625,-0.013333914801478386,-0.046851661056280136,0.027525633573532104
1758447538564685800,8.946685791015625,-0.01438186876475811,-0.05769632011651993,0.03226925805211067
1758447538574657800,8.95665771484375,-0.01335681788623333,-0.053461093455553055,0.02605077438056469
1758447538584630800,8.966630859375,-0.011001251637935638,-0.032343290746212006,0.011547999456524849
1758447538594602800,8.976602783203125,-0.006530869752168655,-0.008315454237163067,-0.0036938043776899576
1758447538604574700,8.98657470703125,-0.007096791639924049,0.0017241304740309715,-0.01569560542702675
1758447538614547700,8.996547607421874,-0.005787848029285669,-0.0032434638123959303,-0.026983946561813354
1758447538624520000,9.00652001953125,-0.006488259416073561,-0.009609484113752842,-0.03085991181433201
1758447538634493000,9.016492919921875,-0.01176185067743063,-0.016762202605605125,-0.0352778285741806
1758447538644464600,9.026464599609374,-0.013616476207971573,-0.01996678300201893,-0.031317174434661865
1758447538654438000,9.03643798828125,-0.01702798530459404,-0.02190929278731346,-0.02142592892050743
1758447538664409900,9.046409912109375,-0.022221149876713753,-0.024987641721963882,-0.011787683703005314
1758447538674382600,9.056382568359375,-0.025901637971401215,-0.023842481896281242,-0.0025686188600957394
1758447538684354800,9.066354736328124,-0.025664083659648895,-0.021074658259749413,0.004987035412341356
1758447538694327800,9.076327880859376,-0.02503557875752449,-0.022189458832144737,0.011481420136988163
1758447538704299800,9.0862998046875,-0.021827533841133118,-0.025665149092674255,0.012651612982153893
1758447538714272800,9.096272705078125,-0.019233882427215576,-0.03611006587743759,0.01260926853865385
1758447538724244700,9.10624462890625,-0.01570146530866623,-0.04060894623398781,0.0005430185701698065
1758447538734218000,9.116218017578126,-0.010311760008335114,-0.03681367263197899,-0.013148559257388115
1758447538744189700,9.126189697265625,-0.0034202977549284697,-0.02149011194705963,-0.0258672833442688
1758447538754162000,9.136161865234374,-0.0006298375665210187,-0.0020580908749252558,-0.038482945412397385
1758447538764135000,9.146135009765626,0.006433664355427027,0.01865384541451931,-0.04126568138599396
1758447538774106600,9.156106689453125,0.00930055696517229,0.034445326775312424,-0.04182680696249008
1758447538784080000,9.166079833984375,0.011885954067111015,0.04277303069829941,-0.042756251990795135
1758447538794051800,9.1760517578125,0.011724832467734814,0.047324106097221375,-0.04021719470620155
1758447538804024600,9.186024658203126,0.0070648337714374065,0.048478852957487106,-0.03609701618552208
1758447538813996800,9.195996826171875,0.003171025775372982,0.043905939906835556,-0.031087080016732216
1758447538823969800,9.2059697265625,-0.0009885653853416443,0.037402231246232986,-0.01655740477144718
1758447538833941800,9.215941650390626,-0.002840261207893491,0.023073360323905945,0.003923901356756687
1758447538843914800,9.225914794921875,-0.0023273364640772343,0.003138535423204303,0.029316609725356102
1758447538853886700,9.23588671875,-0.0015414375811815262,-0.021072261035442352,0.05564967915415764
1758447538863859700,9.245859619140624,0.0033566481433808804,-0.048715341836214066,0.06922461092472076
1758447538873831700,9.255831787109376,0.006301305256783962,-0.07587798684835434,0.06770980358123779
1758447538883804700,9.2658046875,0.010378871113061905,-0.09884268790483475,0.05699564144015312
1758447538893776600,9.275776611328125,0.00947845634073019,-0.1040014997124672,0.038720231503248215
1758447538903748900,9.285748779296876,0.00857164990156889,-0.09201887249946594,0.01938594877719879
1758447538913721900,9.295721923828125,0.004751611966639757,-0.06973966956138611,0.0065713501535356045
1758447538923693600,9.305693603515625,-0.0006215817993506789,-0.04577547684311867,-0.0017385114915668964
1758447538933666800,9.315666748046874,-0.007802529260516167,-0.027183683589100838,-0.007781490217894316
1758447538943638800,9.325638671875,-0.014606107026338577,-0.012249741703271866,-0.016682041808962822
1758447538953611800,9.33561181640625,-0.01804744452238083,0.0012871057260781527,-0.027655063197016716
1758447538963583700,9.345583740234375,-0.021820344030857086,0.01497974805533886,-0.035410188138484955
1758447538973556700,9.355556640625,-0.02383662387728691,0.02616742253303528,-0.03405064344406128
1758447538983529000,9.365529052734376,-0.024294953793287277,0.025132516399025917,-0.030062828212976456
1758447538993501700,9.375501708984375,-0.02497512474656105,0.013276390731334686,-0.02353169210255146
1758447539003473700,9.3854736328125,-0.021513547748327255,0.005132710561156273,-0.022771092131733894
1758447539013447000,9.395447021484374,-0.02069542557001114,0.01799364760518074,-0.02514609880745411
1758447539023418600,9.405418701171875,-0.016169382259249687,0.042810048907995224,-0.030948860570788383
1758447539033391600,9.4153916015625,-0.01284815464168787,0.06387565284967422,-0.030413832515478134
1758447539043363800,9.42536376953125,-0.00896872766315937,0.06984992325305939,-0.03136910870671272
1758447539053335600,9.43533544921875,-0.008933840319514275,0.06601709872484207,-0.02959863841533661
1758447539063308800,9.445308837890625,-0.008382565341889858,0.05690908804535866,-0.02382437326014042
1758447539073280800,9.45528076171875,-0.010692591778934002,0.04945170506834984,-0.01582610048353672
1758447539083253800,9.465253662109374,-0.008193481713533401,0.04435973986983299,-0.006767092272639275
1758447539093225700,9.475225830078125,-0.00771704176440835,0.041318412870168686,0.006708236411213875
1758447539103198700,9.48519873046875,-0.0043835630640387535,0.03495452180504799,0.025234783068299294
1758447539113171000,9.4951708984375,-0.003002181416377425,0.016530772671103477,0.042749062180519104
1758447539123143700,9.505143798828126,-0.00036245622322894633,-0.009242233820259571,0.0508008636534214
1758447539133115600,9.51511572265625,0.0026498453225940466,-0.037347905337810516,0.0531977079808712
1758447539143089000,9.5250888671875,0.006673082709312439,-0.05320010334253311,0.04792278632521629
1758447539153060600,9.535060546875,0.009563944302499294,-0.05107410252094269,0.04144278168678284
1758447539163033600,9.54503369140625,0.008588162250816822,-0.03815590590238571,0.04386492446064949
1758447539173005800,9.555005859375,0.01085957232862711,-0.032582711428403854,0.05049193650484085
1758447539182978800,9.564978759765625,0.01077035628259182,-0.0404781848192215,0.0528206042945385
1758447539192950800,9.57495068359375,0.012596218846738338,-0.05627685412764549,0.04820374771952629
1758447539202922800,9.5849228515625,0.010613229125738144,-0.07017349451780319,0.03243384137749672
1758447539212895700,9.594895751953125,0.010632670484483242,-0.07217246294021606,0.010583668015897274
1758447539222867700,9.60486767578125,0.007063501980155706,-0.06875616312026978,-0.012047874741256237
1758447539232840700,9.6148408203125,-0.0006905576447024941,-0.058466773480176926,-0.02382384054362774
1758447539242813000,9.62481298828125,-0.008653142489492893,-0.0511995367705822,-0.02160729095339775
1758447539252785700,9.63478564453125,-0.011875567957758904,-0.05491944029927254,-0.009102950803935528
1758447539262758000,9.6447578125,-0.011580489575862885,-0.07044753432273865,0.0034229608718305826
1758447539272731000,9.65473095703125,-0.007253119256347418,-0.08872001618146896,0.004324174486100674
1758447539282702600,9.66470263671875,-0.0025427863001823425,-0.09874388575553894,-0.007423827890306711
1758447539292675800,9.67467578125,0.004283960908651352,-0.10486409813165665,-0.02191169001162052
1758447539302647800,9.684647705078126,0.01070963591337204,-0.11623233556747437,-0.032769929617643356
1758447539312620800,9.694620849609375,0.014110758900642395,-0.13978372514247894,-0.04069256782531738
1758447539322592800,9.7045927734375,0.0148649662733078,-0.17237097024917603,-0.0437496118247509
1758447539332565800,9.714565673828124,0.011969311162829399,-0.2013791799545288,-0.04627242311835289
1758447539342538000,9.7245380859375,0.013907027430832386,-0.2141258716583252,-0.05125866085290909
1758447539352510700,9.7345107421875,0.014191718772053719,-0.1996513307094574,-0.05589602142572403
1758447539362482700,9.744482666015625,0.013970410451292992,-0.17503173649311066,-0.05439293384552002
1758447539372455000,9.754454833984376,0.013279053382575512,-0.1518755555152893,-0.04749215021729469
1758447539382427600,9.764427734375,0.012011921964585781,-0.13702788949012756,-0.04025740921497345
1758447539392400000,9.77439990234375,0.008204933255910873,-0.13311943411827087,-0.030604248866438866
1758447539402372900,9.784372802734374,0.005137504078447819,-0.14191079139709473,-0.02183392643928528
1758447539412344600,9.794344482421875,-0.00043649208964779973,-0.1522957980632782,-0.014064153656363487
1758447539422317800,9.80431787109375,-0.0025188177824020386,-0.15221349895000458,-0.0072989254258573055
1758447539432289800,9.814289794921875,-0.003931092098355293,-0.13696371018886566,-0.0002873550693038851
1758447539442262800,9.8242626953125,-0.009495766833424568,-0.11601901054382324,0.008441155776381493
1758447539452234800,9.83423486328125,-0.01462634652853012,-0.09915747493505478,0.01943068951368332
1758447539462207700,9.844207763671875,-0.017317205667495728,-0.09074880927801132,0.03369138389825821
1758447539472180000,9.854179931640624,-0.019119098782539368,-0.08433885127305984,0.042148783802986145
1758447539482152700,9.864152587890626,-0.0157062578946352,-0.07633445411920547,0.044614605605602264
1758447539492124700,9.874124755859375,-0.007123156916350126,-0.07044247537851334,0.04272855445742607
1758447539502098000,9.884097900390625,0.0009651295840740204,-0.07405158877372742,0.03273797407746315
1758447539512069600,9.894069580078124,0.014928882010281086,-0.0901232361793518,0.022844595834612846
1758447539522041900,9.904041748046875,0.034206174314022064,-0.11439155787229538,-0.007963118143379688
1758447539532014800,9.914014892578125,0.030722493305802345,-0.1281513124704361,-0.06179439276456833
1758447539541986800,9.92398681640625,0.015312377363443375,-0.13109596073627472,-0.12823893129825592
1758447539551959800,9.933959716796876,0.016629043966531754,-0.11517878621816635,-0.18609477579593658
1758447539561931800,9.943931884765625,0.03220640495419502,-0.09591374546289444,-0.23284895718097687
1758447539571904800,9.95390478515625,0.0393572598695755,-0.0819968655705452,-0.2628838121891022
1758447539581876700,9.963876708984374,0.009857690893113613,-0.05981219932436943,-0.2566128671169281
1758447539591849700,9.973849609375,-0.02774294838309288,-0.015566176734864712,-0.19985346496105194
1758447539601821700,9.98382177734375,-0.044863611459732056,0.05046530440449715,-0.10573787987232208
1758447539611794700,9.993794677734375,-0.06052299961447716,0.10936324298381805,-0.01233283244073391
1758447539621767000,10.003766845703124,-0.08408238738775253,0.1412745714187622,0.0706707090139389
1758447539631740000,10.013739990234376,-0.08389170467853546,0.13676530122756958,0.13278654217720032
1758447539641711600,10.023711669921875,-0.0668831616640091,0.09741656482219696,0.16713812947273254
1758447539651684900,10.033684814453125,-0.05103841796517372,0.03274516388773918,0.17250466346740723
1758447539661656800,10.04365673828125,-0.03188469633460045,-0.04480608552694321,0.16484594345092773
1758447539671628800,10.05362890625,-0.011914449743926525,-0.12034531682729721,0.15628068149089813
1758447539681601800,10.063601806640625,0.005131911486387253,-0.18874914944171906,0.14819905161857605
1758447539691573800,10.07357373046875,0.02401106059551239,-0.2528493106365204,0.13340865075588226
1758447539701546800,10.083546630859376,0.04271550476551056,-0.30717113614082336,0.1140698492527008
1758447539711518700,10.093518798828125,0.058086737990379333,-0.3491809070110321,0.08327598124742508
1758447539721491700,10.10349169921875,0.06674148142337799,-0.3568667769432068,0.04044516012072563
1758447539731463700,10.113463623046876,0.06426180899143219,-0.31028541922569275,-0.01338478084653616
1758447539741436700,10.123436767578125,0.04800720512866974,-0.22121919691562653,-0.062434613704681396
1758447539751409000,10.133408935546875,0.02648087590932846,-0.10728650540113449,-0.09951833635568619
1758447539761382000,10.1433818359375,0.005537510849535465,0.006046707276254892,-0.11048842966556549
1758447539771353600,10.153353515625,-0.011541341431438923,0.09588365256786346,-0.10469791293144226
1758447539781326800,10.163326904296875,-0.033660758286714554,0.16290342807769775,-0.09153151512145996
1758447539791298800,10.173298828125,-0.05289357528090477,0.2008148580789566,-0.07407848536968231
1758447539801270800,10.183270751953126,-0.06094963848590851,0.21236152946949005,-0.053345512598752975
1758447539811243800,10.193243896484375,-0.06289081275463104,0.19099551439285278,-0.0354866199195385
1758447539821215700,10.2032158203125,-0.057131461799144745,0.13807398080825806,-0.018437596037983894
1758447539831188700,10.213188720703124,-0.05113748461008072,0.04683728143572807,-0.005029912106692791
1758447539841160700,10.22316064453125,-0.04392431303858757,-0.05668138712644577,0.001437041675671935
1758447539851133700,10.2331337890625,-0.03609248995780945,-0.13193246722221375,0.00039015308720991015
1758447539861105700,10.243105712890625,-0.02413969114422798,-0.150835320353508,-0.009575662203133106
1758447539871078700,10.25307861328125,-0.011655590496957302,-0.11565123498439789,-0.017459949478507042
1758447539881051000,10.26305078125,-0.008808671496808529,-0.04914064705371857,-0.015840748324990273
1758447539891024000,10.27302392578125,-0.011067298240959644,0.02375646121799946,-0.005377987399697304
1758447539900995800,10.282995849609375,-0.012353339232504368,0.07920986413955688,0.014428740367293358
1758447539910968800,10.29296875,-0.01116397138684988,0.11436226218938828,0.03051822818815708
1758447539920940800,10.30294091796875,-0.004008590243756771,0.14283251762390137,0.034994468092918396
1758447539930913800,10.312913818359375,0.008214520290493965,0.16771389544010162,0.03202850744128227
1758447539940885800,10.3228857421875,0.023575633764266968,0.18064647912979126,0.03038400411605835
1758447539950858000,10.33285791015625,0.03635348007082939,0.1589299887418747,0.03759051859378815
1758447539960830700,10.342830810546875,0.04409502446651459,0.10047094523906708,0.04755100607872009
1758447539970802400,10.352802490234374,0.04649106785655022,0.029222067445516586,0.04686976969242096
1758447539980775400,10.362775390625,0.04168832302093506,-0.009551960043609142,0.032288696616888046
1758447539990747400,10.372747314453125,0.037209685891866684,-0.008073905482888222,0.007239803206175566
1758447540000720400,10.382720458984375,0.03163835406303406,0.027902204543352127,-0.016469787806272507
1758447540010692400,10.3926923828125,0.020782776176929474,0.09211075305938721,-0.019522834569215775
1758447540020665300,10.402665283203126,0.004344680812209845,0.15908579528331757,0.002910036128014326
1758447540030637600,10.412637451171875,-0.016761936247348785,0.22160562872886658,0.026762638241052628
1758447540040610300,10.4226103515625,-0.035111647099256516,0.2862392067909241,0.03767121210694313
1758447540050582500,10.43258251953125,-0.04470115900039673,0.3335438668727875,0.027895547449588776
1758447540060555500,10.442555419921876,-0.048161670565605164,0.3467278480529785,0.006928213406354189
1758447540070527200,10.45252734375,-0.046478018164634705,0.32392773032188416,-0.007574030198156834
1758447540080499500,10.46249951171875,-0.03599714860320091,0.2701984643936157,0.002198972040787339
1758447540090472400,10.472472412109376,-0.023009978234767914,0.1976528912782669,0.02039528638124466
1758447540100444400,10.4824443359375,-0.014083861373364925,0.12683197855949402,0.03506717458367348
1758447540110417400,10.49241748046875,-0.008527441881597042,0.08072840422391891,0.04686843976378441
1758447540120389400,10.502389404296874,-0.003623496973887086,0.07094767689704895,0.051907140761613846
1758447540130362600,10.512362548828126,-0.00122558674775064,0.0819566547870636,0.06405089050531387
1758447540140334300,10.522334228515625,0.0019534286111593246,0.10208003222942352,0.07734937965869904
1758447540150307300,10.532307373046875,0.0018405106384307146,0.12262178957462311,0.08881455659866333
1758447540160279600,10.542279541015626,0.0024053670931607485,0.14363892376422882,0.08660440146923065
1758447540170252300,10.552252197265625,-0.0008767126128077507,0.16489920020103455,0.0689803957939148
1758447540180224500,10.562224609375,0.006068544927984476,0.17925843596458435,0.050085004419088364
1758447540190197500,10.572197509765624,0.011087272316217422,0.17904990911483765,0.03734976798295975
1758447540200169200,10.582169189453126,0.01185266487300396,0.16361555457115173,0.032115060836076736
1758447540210141400,10.592141357421875,0.013197827152907848,0.13623081147670746,0.028077173978090286
1758447540220114400,10.602114501953125,0.01612277701497078,0.11177606880664825,0.018975555896759033
1758447540230086400,10.61208642578125,0.019686618819832802,0.1100817620754242,0.008611331693828106
1758447540240059400,10.622059326171875,0.019572902470827103,0.1254948079586029,-0.0028538433834910393
1758447540250031400,10.63203125,0.01512861903756857,0.13642574846744537,-0.004004328977316618
1758447540260004400,10.64200439453125,0.013375992886722088,0.1386825144290924,0.00660677021369338
1758447540269976300,10.651976318359376,0.0067748152650892735,0.1285790205001831,0.022521553561091423
1758447540279949300,10.66194921875,0.0006519418093375862,0.10603535920381546,0.03443360701203346
1758447540289921300,10.67192138671875,-0.0054794540628790855,0.08723663538694382,0.03534254431724548
1758447540299894300,10.681894287109374,-0.011631355620920658,0.09166813641786575,0.025360483676195145
1758447540309866500,10.691866455078125,-0.009998572058975697,0.09833455830812454,0.0005747101386077702
1758447540319839500,10.701839599609375,-0.006902647204697132,0.10787426680326462,-0.018880214542150497
1758447540329811500,10.7118115234375,-0.006216883193701506,0.11012836545705795,-0.0131509555503726
1758447540339783400,10.721783447265626,-0.008321579545736313,0.09711989015340805,0.004562527406960726
1758447540349756400,10.73175634765625,-0.0052325790748000145,0.06510789692401886,0.025499766692519188
1758447540359728400,10.741728271484375,0.0014229270163923502,0.026343723759055138,0.02870701253414154
1758447540369701400,10.751701416015624,0.006746852304786444,-0.0012258529895916581,0.016927585005760193
1758447540379673600,10.761673583984376,0.010602576658129692,-0.01926504075527191,-0.0009427590412087739
1758447540389646300,10.771646240234375,0.012366920709609985,-0.03418433666229248,-0.0049489522352814674
1758447540399618300,10.781618408203125,0.01287265494465828,-0.05017928034067154,0.005005144979804754
1758447540409591600,10.791591552734374,0.017176058143377304,-0.07478076219558716,0.017055150121450424
1758447540419563300,10.801563232421875,0.02142752707004547,-0.09755159169435501,0.01762346923351288
1758447540429536300,10.811536376953125,0.022037923336029053,-0.10818452388048172,0.007278951816260815
1758447540439508500,10.821508544921874,0.018255436792969704,-0.0973137691617012,-0.0076422072015702724
1758447540449481500,10.8314814453125,0.012706474401056767,-0.07056551426649094,-0.019636286422610283
1758447540459453400,10.841453369140625,0.006992129608988762,-0.04640025645494461,-0.021917017176747322
1758447540469425400,10.85142529296875,0.0008085357258096337,-0.04156741872429848,-0.0156540609896183
1758447540479398400,10.8613984375,-0.006661631166934967,-0.05169515311717987,-0.010385262779891491
1758447540489370400,10.871370361328125,-0.013381319120526314,-0.06915776431560516,-0.011485148221254349
1758447540499343400,10.88134326171875,-0.020145215094089508,-0.07117537409067154,-0.014246846549212933
1758447540509315600,10.891315673828124,-0.023559654131531715,-0.054610248655080795,-0.019360115751624107
1758447540519288300,10.901288330078126,-0.02389121800661087,-0.028321653604507446,-0.014277473092079163
1758447540529260300,10.91126025390625,-0.026675552129745483,-0.003722033929079771,-0.0062672169879078865
1758447540539233500,10.921233642578125,-0.027183683589100838,0.008045676164329052,0.0018341189716011286
1758447540549205200,10.931205322265624,-0.024151941761374474,0.009926133789122105,0.0012271846644580364
1758447540559178200,10.94117822265625,-0.02033909410238266,0.00407543545588851,-0.0035204326268285513
1758447540569150500,10.951150390625,-0.01287318766117096,-0.005629656370729208,-0.010637996718287468
1758447540579123500,10.96112353515625,-0.005539108533412218,-0.015797073021531105,-0.01877715066075325
1758447540589095400,10.971095458984376,0.0019033611752092838,-0.024759141728281975,-0.01932496204972267
1758447540599067400,10.9810673828125,0.007748999632894993,-0.030486803501844406,-0.016560867428779602
1758447540609040400,10.991040283203125,0.008786034770309925,-0.03172357380390167,-0.010964234359562397
1758447540619012400,11.001012451171874,0.010134393349289894,-0.02255777269601822,-0.009135973639786243
1758447540628985300,11.0109853515625,0.009674198925495148,-0.004195810295641422,-0.007772169075906277
1758447540638957600,11.02095751953125,0.00689066294580698,0.013260412029922009,-0.008501608856022358
1758447540648930300,11.030930419921875,0.0058067562058568,0.02135482244193554,-0.012357866391539574
1758447540658902500,11.040902587890624,0.004592354875057936,0.017964620143175125,-0.010125338099896908
1758447540668875500,11.05087548828125,0.004591822158545256,0.0037886130157858133,-0.0075971996411681175
1758447540678847200,11.06084716796875,-0.0006985471700318158,-0.012255334295332432,-0.0008466189028695226
1758447540688820500,11.070820556640625,-0.004459463059902191,-0.015671370550990105,0.011545069515705109
1758447540698792400,11.08079248046875,-0.00634817685931921,-0.011294732801616192,0.029936859384179115
1758447540708765400,11.090765380859375,-0.005004612263292074,-0.0019403791520744562,0.0470130480825901
1758447540718737400,11.1007373046875,-0.006579339504241943,-0.0004732437082566321,0.055209726095199585
1758447540728709400,11.11070947265625,-0.00566880451515317,-0.008413458243012428,0.058093395084142685
1758447540738682600,11.1206826171875,-0.0029944581910967827,-0.02172553539276123,0.05314391106367111
1758447540748654300,11.130654296875,-0.0011515507940202951,-0.033073265105485916,0.044207941740751266
1758447540758627300,11.14062744140625,0.0017132115317508578,-0.037407293915748596,0.02871020883321762
1758447540768599600,11.150599609375,0.003200586885213852,-0.030828220769762993,0.004866394214332104
1758447540778572300,11.160572265625,0.003964648116379976,-0.017257550731301308,-0.014988803304731846
1758447540788544500,11.17054443359375,0.0021164140198379755,0.006096508353948593,-0.024997495114803314
1758447540798517500,11.180517578125,0.0008101335843093693,0.023361515253782272,-0.024405740201473236
1758447540808489200,11.1904892578125,0.0019744676537811756,0.030488666146993637,-0.019281553104519844
1758447540818462500,11.20046240234375,0.000987766426987946,0.028390895575284958,-0.014994662255048752
1758447540828434400,11.210434326171875,-0.0010492854053154588,0.0299586970359087,-0.018684204667806625
1758447540838406400,11.220406494140626,-0.005012601613998413,0.030071616172790527,-0.023480825126171112
1758447540848379400,11.23037939453125,-0.010301905684173107,0.027546405792236328,-0.023914387449622154
1758447540858351400,11.240351318359375,-0.012766927480697632,0.017057280987501144,-0.01679442636668682
1758447540868324400,11.250324462890624,-0.013712616637349129,-0.007515972945839167,-0.0028940571937710047
1758447540878296300,11.26029638671875,-0.012223110534250736,-0.0388704352080822,0.013027384877204895
1758447540888269300,11.270269287109375,-0.010673416778445244,-0.07111092656850815,0.023938355967402458
1758447540898241300,11.2802412109375,-0.010754643008112907,-0.09611295163631439,0.024118119850754738
1758447540908214300,11.29021435546875,-0.010522948578000069,-0.1070159301161766,0.018809907138347626
1758447540918186500,11.3001865234375,-0.007634750101715326,-0.09987626224756241,0.008128766901791096
1758447540928159500,11.310159423828125,-0.005203284323215485,-0.08076249063014984,0.005687446799129248
1758447540938131500,11.32013134765625,-0.0009922938188537955,-0.05968650057911873,0.007754059974104166
1758447540948103400,11.330103515625,0.00666535971686244,-0.03906990587711334,0.009191634133458138
1758447540958076400,11.340076416015625,0.018732141703367233,-0.02160622552037239,0.010758638381958008
1758447540968048400,11.35004833984375,0.0351468026638031,-0.0070488546043634415,0.002877545543015003
1758447540978022100,11.360022216796875,0.05359851196408272,0.0016279903938993812,-0.0067660268396139145
1758447540987994000,11.369994140625,0.06825096160173416,0.008976184763014317,-0.010683270171284676
1758447540997967000,11.379967041015625,0.08264880627393723,0.012895292602479458,-0.011846805922687054
1758447541007939000,11.38993896484375,0.0962277352809906,0.005588643718510866,-0.014328871853649616
1758447541017912000,11.399912109375,0.10790329426527023,0.0033129723742604256,-0.017180584371089935
1758447541027884000,11.409884033203125,0.1128583773970604,0.007396397180855274,-0.02064109593629837
1758447541037857000,11.41985693359375,0.1045043021440506,0.010683802887797356,-0.01932496204972267
1758447541047829200,11.429829345703125,0.0721873790025711,0.00917405728250742,-0.009099222719669342
1758447541057802200,11.43980224609375,0.014333665370941162,-0.006548180244863033,0.010637730360031128
1758447541067774000,11.44977392578125,-0.04175383970141411,-0.03750316798686981,0.03774311766028404
1758447541077746200,11.45974609375,-0.08324828743934631,-0.062137674540281296,0.0811033770442009
1758447541087719200,11.46971923828125,-0.13101686537265778,-0.10385289788246155,0.10625746101140976
1758447541097691100,11.479691162109376,-0.1783982366323471,-0.1587236076593399,0.10754004120826721
1758447541107664100,11.4896640625,-0.1902138888835907,-0.19795861840248108,0.09901686012744904
1758447541117636000,11.499635986328125,-0.13606037199497223,-0.18543776869773865,0.08444377779960632
1758447541127609000,11.509609130859374,-0.041438255459070206,-0.11406558752059937,0.06172328442335129
1758447541137581000,11.5195810546875,0.036929257214069366,-0.007354585453867912,0.022894663736224174
1758447541147554000,11.529553955078125,0.07527212053537369,0.08431674540042877,-0.02376817911863327
1758447541157526000,11.539526123046874,0.0949784442782402,0.135202556848526,-0.05572930723428726
1758447541167499000,11.5494990234375,0.09908983111381531,0.1460869014263153,-0.07003820687532425
1758447541177471200,11.55947119140625,0.09248785674571991,0.12287984788417816,-0.07181267440319061
1758447541187443000,11.56944287109375,0.06957001984119415,0.08124452084302902,-0.06457047164440155
1758447541197416200,11.579416259765624,0.032342493534088135,0.044745102524757385,-0.04881734028458595
1758447541207388200,11.58938818359375,0.003002181416377425,0.03253663703799248,-0.030108634382486343
1758447541217361200,11.599361083984375,-0.021706627681851387,0.045883070677518845,-0.012501411139965057
1758447541227333000,11.6093330078125,-0.04676084592938423,0.07969296723604202,0.0003403519804123789
1758447541237306000,11.61930615234375,-0.06972715258598328,0.1282101720571518,0.015084144659340382
1758447541247278300,11.6292783203125,-0.09372835606336594,0.1791638880968094,0.03295581787824631
1758447541257251000,11.6392509765625,-0.09873483330011368,0.21950119733810425,0.05543342977762222
1758447541267223000,11.64922314453125,-0.0946977436542511,0.2261524349451065,0.07412056624889374
1758447541277196300,11.6591962890625,-0.09186680614948273,0.19620732963085175,0.07655069977045059
1758447541287168000,11.66916796875,-0.07826444506645203,0.13879597187042236,0.06390202045440674
1758447541297140200,11.67914013671875,-0.05771735683083534,0.06471321731805801,0.04682423174381256
1758447541307113200,11.68911328125,-0.039813727140426636,-0.015084942802786827,0.03644775599241257
1758447541317085000,11.6990849609375,-0.019961724057793617,-0.08384057134389877,0.03531990572810173
1758447541327058200,11.70905810546875,-0.0011688614031299949,-0.1225365698337555,0.03784991055727005
1758447541337030100,11.719030029296874,0.014566692523658276,-0.11966488510370255,0.03803686425089836
1758447541347003100,11.729003173828126,0.025171931833028793,-0.07231094688177109,0.0268382728099823
1758447541356975000,11.73897509765625,0.03166764974594116,0.010214820504188538,0.0037356161046773195
1758447541366948000,11.748947998046875,0.03340322896838188,0.09477896988391876,-0.022960709407925606
1758447541376920300,11.75892041015625,0.030795995146036148,0.15473338961601257,-0.04344707727432251
1758447541386893000,11.76889306640625,0.02671070583164692,0.1833200305700302,-0.05343100056052208
1758447541396865000,11.778864990234375,0.01769617199897766,0.18038442730903625,-0.0528741329908371
1758447541406837000,11.7888369140625,0.008681372739374638,0.15047472715377808,-0.04760746657848358
1758447541416810000,11.79881005859375,-0.0032024511601775885,0.11156754195690155,-0.03982517868280411
1758447541426782200,11.8087822265625,-0.01738032139837742,0.07877550274133682,-0.03208896145224571
1758447541436755200,11.818755126953125,-0.029989324510097504,0.059724316000938416,-0.019539613276720047
1758447541446727000,11.828726806640624,-0.04217594861984253,0.06384395807981491,-0.0000679106087773107
1758447541456700200,11.8387001953125,-0.0539947934448719,0.08213614672422409,0.024396685883402824
1758447541466672000,11.848672119140625,-0.05980421230196953,0.1068420261144638,0.04971695691347122
1758447541476645000,11.85864501953125,-0.0622258223593235,0.13109970092773438,0.06993061304092407
1758447541486617000,11.8686171875,-0.056112270802259445,0.15313255786895752,0.0884542316198349
1758447541496590000,11.878590087890625,-0.046372026205062866,0.1698998212814331,0.10721646994352341
1758447541506562000,11.88856201171875,-0.03376994654536247,0.17616544663906097,0.12067235261201859
1758447541516534000,11.898533935546874,-0.01996891386806965,0.16339264810085297,0.1279318630695343
1758447541526507300,11.90850732421875,-0.0004926847759634256,0.13329680263996124,0.12089552730321884
1758447541536479000,11.91847900390625,0.02082938142120838,0.09320344775915146,0.0878819152712822
1758447541546452000,11.928451904296875,0.03834792226552963,0.05666967108845711,0.0388677716255188
1758447541556424200,11.938424072265626,0.05137477442622185,0.03163888677954674,-0.0033923345617949963
1758447541566397200,11.948397216796875,0.05867423117160797,0.010279002599418163,-0.03099626488983631
1758447541576369200,11.958369140625,0.05481185019016266,-0.009543437510728836,-0.04409236088395119
1758447541586342100,11.968342041015624,0.03972184658050537,-0.02977627143263817,-0.05088768154382706
1758447541596314000,11.978314208984376,0.026187662035226822,-0.048054877668619156,-0.05574049428105354
1758447541606287000,11.988287109375,0.01098580565303564,-0.058929894119501114,-0.058039333671331406
1758447541616259000,11.998259033203125,-0.00021598236344289035,-0.06578673422336578,-0.05404352769255638
1758447541626231300,12.008231201171874,-0.013762949965894222,-0.07515866309404373,-0.04032904654741287
1758447541636204000,12.0182041015625,-0.02954697236418724,-0.10270720720291138,-0.01595473103225231
1758447541646176000,12.028176025390625,-0.03917962685227394,-0.14316461980342865,0.00893810112029314
1758447541656149200,12.038149169921875,-0.04316131770610809,-0.18895873427391052,0.03136670961976051
1758447541666121000,12.048120849609376,-0.04092612862586975,-0.22499343752861023,0.038902126252651215
1758447541676094000,12.058093994140625,-0.03682113066315651,-0.24757437407970428,0.03802967444062233
