time,seconds_elapsed,z,y,x
1758447383662861800,0.01686181640625,-0.4717191018491983,0.19718027617931363,-0.04892280166633427
1758447383672833800,0.026833740234375,-0.31614041760265826,0.17097440629899502,-0.052882572142779825
1758447383682805800,0.0368056640625,-0.0702484252244234,0.11655892550051211,0.010714432368427514
1758447383692778000,0.046778076171875,0.2017570825755596,0.06311375103890896,0.09467146680857985
1758447383702751000,0.0567509765625,0.3526490703105926,0.03773936354666948,0.2110063742948696
1758447383712722700,0.06672265625,0.481169651761651,0.06639467240571975,0.25698932311702516
1758447383722695000,0.07669482421875,0.5187275212615728,0.07729600564837455,0.24778229963686316
1758447383732668000,0.08666796875,0.4749795649498701,0.0897355082437396,0.23866050675474107
1758447383742639900,0.096639892578125,0.4019365405708551,0.1231868192076683,0.23267387009318916
1758447383752612400,0.1066123046875,0.3077548665732145,0.16190087300539016,0.2078498464927077
1758447383762584300,0.116584228515625,0.17328619037270546,0.20064006124436853,0.19664839779231696
1758447383772557300,0.126557373046875,0.05186871892511844,0.2249713694244623,0.22030085686277598
1758447383782529300,0.136529296875,-0.0014776713371276854,0.2722667890846729,0.2535947853079066
1758447383792501500,0.14650146484375,-0.014869652351737022,0.3021037089437246,0.28193500033579766
1758447383802474200,0.15647412109375,-0.028584289449453352,0.28617431840598584,0.27603253482636064
1758447383812446500,0.166446533203125,-0.05192191041707992,0.2438064182758331,0.2574742205571383
1758447383822418200,0.176418212890625,-0.038574937587976456,0.20655016207098958,0.195205286311917
1758447383832391200,0.18639111328125,-0.029593174231052396,0.17481413059234618,0.12674779962487517
1758447383842363400,0.19636328125,-0.027847791868448254,0.14799714307636022,0.10481390797533094
1758447383852335000,0.206335205078125,-0.006596914047002792,0.1299547059074044,0.11136289122737944
1758447383862307300,0.216307373046875,0.012209493231773375,0.13657704665660858,0.12880137115381657
1758447383872280300,0.2262802734375,0.0024269348859786988,0.1631350909754634,0.15340886592678724
1758447383882252300,0.236252197265625,0.04537994142770767,0.16972236041128635,0.17294055527281016
1758447383892224300,0.246224365234375,0.14601765969693659,0.17575316500812768,0.16957111537232994
1758447383902197200,0.256197265625,0.19873451988399027,0.13546031758636234,0.15497797840703278
1758447383912169200,0.266169189453125,0.1807604717761278,0.07262450670599938,0.1275337258381769
1758447383922141400,0.276141357421875,0.1340010586887598,0.00813332983404398,0.07045140045061707
1758447383932113400,0.286113525390625,0.09128770612180233,0.01620470034778118,0.055961431598849594
1758447383942086100,0.296086181640625,0.05047989491522312,0.053449850636720656,0.07558503701202571
1758447383952058400,0.306058349609375,0.04090776444971561,0.07774433393776416,0.1434969455802813
1758447383962030300,0.3160302734375,0.06417232018113136,0.1236135201871395,0.18415533837880937
1758447383972003300,0.32600341796875,0.11262509318292141,0.10717413430064916,0.13862583241257817
1758447383981975300,0.335975341796875,0.08996084143221378,0.07550912223160267,0.06259370922017843
1758447383991947500,0.345947509765625,0.014182254609465598,0.06001227789223194,-0.03687280984520912
1758447384001919200,0.355919189453125,-0.08988894523978233,0.0305734174400568,-0.15104275784995405
1758447384011892200,0.365892333984375,-0.19345044200122355,0.04322919313460588,-0.23032266732454298
1758447384021864400,0.375864501953125,-0.23680209247171877,0.06461626455634832,-0.24251966640092432
1758447384031836200,0.385836181640625,-0.2150111164242029,0.08958382481336594,-0.19980960176959633
1758447384041809400,0.395809326171875,-0.08987959288954735,0.08716887262612581,-0.14610036954432726
1758447384051781400,0.405781494140625,0.06304243936836719,0.025453882469236848,-0.08831837145481258
1758447384061753300,0.41575341796875,0.19437866276204585,-0.01390811384320259,-0.07726846005432307
1758447384071725300,0.425725341796875,0.26243454637825486,-0.06784311764836311,-0.10943429778497665
1758447384081698300,0.4356982421875,0.2416892799913883,-0.11386603315472602,-0.15231858647204935
1758447384091670300,0.445670166015625,0.18544775280952452,-0.11656973915547132,-0.20221030623577535
1758447384101642500,0.455642578125,0.10468202522397041,-0.13131313477903603,-0.22840565472207963
1758447384111615500,0.465615478515625,0.03506897529363632,-0.075670742534101,-0.23036150149758905
1758447384121587200,0.475587158203125,0.1018541083216667,0.010442775820195675,-0.2246858304813504
1758447384131559400,0.485559326171875,0.1557639776855707,0.05079086056053638,-0.18036734427269546
1758447384141531100,0.49553125,0.17844225796163082,0.07868453739732503,-0.07504899390656501
1758447384151504400,0.50550439453125,0.25587445721030233,0.09235270500481128,0.027648177643120286
1758447384161476400,0.515476318359375,0.38025370107293127,0.1116191310107708,0.07521927243955433
1758447384171448300,0.5254482421875,0.43377720146775245,0.11434358753859997,0.11658709214907138
1758447384181421300,0.53542138671875,0.4218254823893308,0.11686200010031461,0.1387935536623001
1758447384191393300,0.545393310546875,0.3062836249768734,0.19162614918351173,0.16670019957851617
1758447384201365200,0.555365234375,0.08257190022468566,0.23439853846132755,0.16237382427938282
1758447384211337200,0.565337158203125,-0.15782675543427466,0.254690800383687,0.15212492706347255
1758447384221310500,0.575310546875,-0.3517582589507103,0.25918197432309387,0.09286138517931103
1758447384231282200,0.5852822265625,-0.4279325670927763,0.2472039517596364,0.07198635493293404
1758447384241254400,0.59525439453125,-0.2716992183297872,0.2566840200275183,0.0767279234368354
1758447384251227400,0.605227294921875,0.004487959069013595,0.22662615089416502,0.1344020041724667
1758447384261199400,0.615199462890625,0.19356851542294023,0.11601824275255203,0.13104991726558654
1758447384271171300,0.62517138671875,0.20347616145312786,0.043815176329016686,0.129791332039237
1758447384281143600,0.6351435546875,0.16881342887282372,0.03087006229907274,0.03794369047973305
1758447384291116300,0.6451162109375,0.12619944502711294,0.030208968041837213,-0.03194412127137184
1758447384301088300,0.655088134765625,0.05488602091968059,0.03150309950560331,-0.07206471739877016
1758447384311060500,0.665060546875,-0.049126142218708986,0.015236439837515353,-0.04750654166024178
1758447384321033200,0.675033203125,-0.09691782096326351,0.034113866525888444,-0.0053308031013235445
1758447384331005400,0.68500537109375,-0.08940554563701152,0.06004530337899923,0.005874043132551014
1758447384340977400,0.694977294921875,-0.06781447607576847,0.04570493559837341,0.026236849540472028
1758447384350950100,0.7049501953125,-0.04725450312793254,0.040727147185802455,0.06185684631299227
1758447384360922400,0.71492236328125,0.02613222012221813,0.07464169174730777,0.1122969206744805
1758447384370894300,0.724894287109375,0.10419979466497897,0.0781105369016528,0.14862725767344234
1758447384380866300,0.7348662109375,0.2013824040442705,0.010358604668080806,0.1743910098094493
1758447384390839300,0.74483935546875,0.2696399477124214,-0.04584229824244976,0.1708183754870668
1758447384400811500,0.7548115234375,0.3237251736432314,-0.06962444810718298,0.1553042512193322
1758447384410783200,0.764783203125,0.26719313908219333,-0.04888298111259937,0.1309955201972276
1758447384420756200,0.774756103515625,0.21743454417884348,0.042485389029979705,0.1267904331902042
1758447384430728400,0.784728515625,0.1923205611884594,0.1263563891544938,0.1453736992375925
1758447384440700400,0.794700439453125,0.19344167417287825,0.18821108004301784,0.18233499108385293
1758447384450672400,0.80467236328125,0.15860300050377846,0.21322803239971397,0.2002490161001682
1758447384460645400,0.814645263671875,0.015254267755150794,0.22195348290801048,0.23798191337343305
1758447384470617300,0.824617431640625,-0.1388455761104822,0.23846330368220806,0.2678034164676443
1758447384480589300,0.83458935546875,-0.2786480145543814,0.23795272381156682,0.20107808733545243
1758447384490562600,0.8445625,-0.3531505900919437,0.2432069910779595,0.14275931548811494
1758447384500534300,0.8545341796875,-0.3551648525238037,0.20152590416818855,0.09119904145766049
1758447384510506500,0.864506591796875,-0.27541560850441454,0.19718407557159662,0.058558243159018454
1758447384520478200,0.874478271484375,-0.15819441970288753,0.14866905098855496,0.020850041935592888
1758447384530451200,0.884451171875,-0.059842766544222825,0.10317220518290995,0.006675824502110481
1758447384540423400,0.89442333984375,0.06332885509431362,0.07602730088680983,0.002432122517749667
1758447384550395100,0.90439501953125,0.1756540885478258,0.05014057995826006,0.008894596530124544
1758447384560368400,0.914368408203125,0.2621791103124618,0.005578092393279075,-0.02133099385295063
1758447384570340400,0.92434033203125,0.2986632131010294,-0.06556406680047512,-0.03038209611903876
1758447384580312300,0.934312255859375,0.27435294770896435,-0.09712591075599193,-0.055980757353827355
1758447384590284300,0.9442841796875,0.20146248354315757,-0.05679097775816917,-0.0637897506043315
1758447384600257300,0.95425732421875,0.10830722998380661,-0.00005465279668569564,-0.05627433347292244
1758447384610229200,0.964229248046875,0.04053483948409557,0.04098229099065065,-0.07532872416339814
1758447384620201500,0.974201416015625,-0.06339549058973788,0.0599222615212202,-0.060572359460406004
1758447384630174500,0.984174560546875,-0.06668693335056304,0.09790537069588899,-0.05521667764615267
1758447384640146200,0.994146240234375,-0.01761632071137428,0.09461334341317415,-0.06046418637819588
1758447384650118400,1.004118408203125,-0.09047580521702765,0.05904723225235939,-0.03520286733899265
1758447384660091400,1.01409130859375,-0.16787819384932517,0.0015039748221635817,-0.05918766363635659
1758447384670063400,1.0240634765625,-0.1913397334575653,-0.026643384514749048,-0.14071896876692772
1758447384680035300,1.034035400390625,-0.15761106685698031,-0.06360854881852865,-0.18916428911462424
1758447384690007600,1.044007568359375,-0.07420154676437378,-0.06119944185018539,-0.19465963512789458
1758447384699980300,1.053980224609375,0.05724982744157314,-0.029007191036641598,-0.13371749250702558
1758447384709952300,1.0639521484375,0.17377952684760092,-0.008161971406638623,-0.10002879259064792
1758447384719924500,1.073924560546875,0.24840134485065934,0.003155249160528183,-0.07868106679860502
1758447384729897200,1.083897216796875,0.27931495403051376,-0.02424129180908203,-0.05160400357432663
1758447384739869400,1.093869384765625,0.3110141606301069,-0.06640928545296192,-0.045550841015204784
1758447384749841000,1.1038408203125,0.22286475253403185,-0.07401449975967407,-0.01638736343830824
1758447384759812900,1.113812744140625,0.09441489823162555,-0.03613251287192106,0.0037085356617346404
1758447384769785900,1.123785888671875,-0.027775311154127118,0.04111731554716825,-0.014247721061110497
1758447384779758000,1.133758056640625,-0.11532616883516311,0.1188122573852539,-0.029072255629487335
1758447384789729800,1.143729736328125,-0.1034229650735855,0.16565788745135068,-0.017755071594938634
1758447384799702800,1.153702880859375,-0.07714753708839416,0.22457535584419963,0.008377769581787287
1758447384809675000,1.163675048828125,-0.07206219664812087,0.283596576872468,0.05061196032967418
1758447384819646700,1.173646728515625,0.020501520758867263,0.3080436203867197,0.07638678184896706
1758447384829619000,1.183618896484375,0.1059498532027006,0.265177707606554,0.07473218304235488
1758447384839592000,1.193592041015625,0.16294366005659103,0.189262634922564,0.05777348598949611
1758447384849564000,1.20356396484375,0.20906302167475221,0.13553104473501443,0.011531630502827465
1758447384859536000,1.213535888671875,0.2194727720081806,0.06657675097435713,-0.04271123367510736
1758447384869508900,1.2235087890625,0.16757073533535002,0.05336860209405422,-0.05709313904251903
1758447384879480800,1.233480712890625,0.11465338414013385,0.09937398194372653,-0.04970039844270795
1758447384889453000,1.243453125,0.06746843911707401,0.1755009438127279,0.0058156640088185664
1758447384899424800,1.2534248046875,0.049157706400752066,0.19928923115730285,0.09177103265933692
1758447384909397800,1.263397705078125,0.07763035216927527,0.23048224180042742,0.13809055649209767
1758447384919370000,1.273369873046875,0.05528875650167465,0.2764300462439656,0.1533814299305901
1758447384929341700,1.283341796875,-0.015976152288913727,0.2951847233355045,0.15482242251913994
1758447384939315000,1.29331494140625,-0.050537178060412406,0.2829579867079854,0.09664181703347713
1758447384949287000,1.303286865234375,-0.06494856525063514,0.25694179418087004,0.02742379430271685
1758447384959259000,1.3132587890625,-0.07441139012277126,0.18141484403163194,0.007150090950354933
1758447384969232000,1.32323193359375,-0.047923196169734,0.06597820055931806,-0.026757293218001722
1758447384979203800,1.333203857421875,-0.06951426573097705,-0.040945466111600395,-0.052197074096649886
1758447384989175800,1.34317578125,-0.0426817883849144,-0.07832710226178169,-0.08449863050356507
1758447384999147800,1.353147705078125,0.04248421998620033,-0.06259323429614305,-0.11203326476961374
1758447385009121000,1.36312109375,0.1019108069449663,-0.05462941581010818,-0.10964004949014633
1758447385019092700,1.3730927734375,0.17957739947140217,-0.020460604226589203,-0.11009805892333388
1758447385029065000,1.38306494140625,0.2521148124158382,-0.023197920235991477,-0.09804693459104746
1758447385039038000,1.393037841796875,0.36188217808008194,-0.07025923887938261,-0.08895462353173643
1758447385049010000,1.403010009765625,0.4590326387554407,-0.13287059335410595,-0.06890961436871439
1758447385058982000,1.41298193359375,0.44322307520508764,-0.20303981586247682,-0.10568846232015638
1758447385068954000,1.4229541015625,0.31864626294374465,-0.22008535094857215,-0.11408566725477576
1758447385078926800,1.4329267578125,0.19147241992652414,-0.18508593375980853,-0.1089160825971514
1758447385088898800,1.44289892578125,0.07750467996299266,-0.08946458234786987,-0.11146437884047627
1758447385098870800,1.452870849609375,-0.022677695754170415,-0.013584288716316222,-0.09770389330703765
1758447385108843800,1.46284375,-0.03957680810689926,0.05958236204236746,-0.0557873536735773
1758447385118816000,1.47281591796875,0.03954992009997368,0.12670710228830576,-0.018867562881484626
1758447385128787700,1.48278759765625,0.12804302706718443,0.18631489103287457,0.02130721111856401
1758447385138760700,1.4927607421875,0.20952888562083244,0.20529665487855672,0.044933293638750905
1758447385148733000,1.50273291015625,0.23184534684717653,0.21062690999060868,0.055212732123397286
1758447385158704600,1.51270458984375,0.13754969108104706,0.19031068267077206,0.06474007359910756
1758447385168676900,1.5226767578125,0.09648059858977794,0.18724281953275201,0.023329218465462327
1758447385178649900,1.53264990234375,-0.023665537747740745,0.16569412780851125,0.021727811150811613
1758447385188621800,1.542621826171875,-0.10939034904539585,0.1482934956744313,-0.01369290018994361
1758447385198593800,1.55259375,-0.24772563754618165,0.12131371881216764,-0.0055611047258600586
1758447385208566800,1.56256689453125,-0.31863632607161996,0.0763727533236146,0.04508340616654605
1758447385218538800,1.572538818359375,-0.32179157523214813,0.056233636136353016,0.07397033182438463
1758447385228511000,1.582510986328125,-0.28005028256773945,0.10748422316312789,0.07232172436714172
1758447385238483000,1.59248291015625,-0.19713234538435934,0.17118191156983376,0.06306764687485993
1758447385248455700,1.60245556640625,-0.1257441024750471,0.22299276282787323,0.05243851816970855
1758447385258428000,1.612427978515625,-0.06524024167358874,0.23571342045217752,0.10413158826697617
1758447385268399900,1.62239990234375,-0.01887128920853138,0.19808482380360365,0.14634667245559393
1758447385278372900,1.632372802734375,0.10275894820690154,0.12893646877557038,0.17243406705539674
1758447385288344800,1.6423447265625,0.2660498142659664,0.04042348806411028,0.15221048645507543
1758447385298317000,1.652317138671875,0.3903957403808832,-0.0069368135258555405,0.11390373481661081
1758447385308289800,1.662289794921875,0.4256090925812721,-0.010522855319082737,0.10286215285304934
1758447385318261800,1.67226171875,0.37859482795000077,0.01871872899532318,0.12108699738420545
1758447385328234000,1.68223388671875,0.28363106366395946,0.10913988141566515,0.11180698173306881
1758447385338205700,1.692205810546875,0.19079554357826708,0.18933599241971968,0.06597005378548056
1758447385348179000,1.702178955078125,0.05483633655905723,0.19944120684862135,0.040391887349449096
1758447385358151000,1.71215087890625,-0.009465747481584548,0.1567117799296975,0.016411767227202653
1758447385368123000,1.722122802734375,0.011182488271594047,0.1259425476565957,-0.012741956140659748
1758447385378095900,1.732095947265625,0.06244798060655594,0.11249123767018318,0.024348186249658465
1758447385388067800,1.74206787109375,0.08547288236320018,0.10546820716559886,0.03767839060705155
1758447385398039800,1.752039794921875,0.031235096219182013,0.10721358952820301,0.041650947499834
1758447385408012000,1.762011962890625,-0.026262568503618237,0.1077475502744317,0.019999416455626487
1758447385417985000,1.771985107421875,-0.06558920124173163,0.12058014384061097,-0.026468795132823287
1758447385427956700,1.781956787109375,-0.07485211962759494,0.16339286512881515,-0.02238872274495661
1758447385437929000,1.791928955078125,-0.06208265442550182,0.21881752296984194,0.036021965169534084
1758447385447902000,1.80190185546875,-0.07350012049674988,0.2012076319992542,0.043129057228378946
1758447385457874000,1.8118740234375,-0.03513151913583278,0.15526947216689585,0.08353731119073927
1758447385467846000,1.821845947265625,0.019395605343580244,0.08639671920984983,0.08266692156437784
1758447385477819000,1.83181884765625,-0.002840191861987114,0.07605389663279057,0.035459362850710746
1758447385487790800,1.841790771484375,0.000377016618847847,0.09654138886630534,-0.008086641148105263
1758447385497762800,1.8517626953125,0.031924247527122494,0.15916209569126366,-0.009056947484984994
1758447385507734800,1.86173486328125,0.022508184406161307,0.13378478558957577,0.045524172203987835
1758447385517707800,1.871707763671875,0.07921323744654656,0.0833612970367074,0.04675104711782187
1758447385527680000,1.881679931640625,0.04679682248830795,0.06471563327759504,0.03912519188188016
1758447385537651700,1.891651611328125,-0.0279635272026062,0.04938099376261234,0.005835574285686016
1758447385547624700,1.901624755859375,-0.03858078280687332,0.009912614466249942,-0.0027608064828440544
1758447385557597000,1.911596923828125,-0.03608896599113941,-0.03387830420434475,-0.003981178590655327
1758447385567569000,1.92156884765625,-0.0036257892817258834,-0.04810001404136419,0.03435735642556101
1758447385577540900,1.931540771484375,0.061770519736409187,-0.03369681015759706,0.002187573172152042
1758447385587513900,1.941513916015625,0.0862520500421524,0.007718903814256191,-0.04842720016911625
1758447385597485800,1.95148583984375,0.10799275720715522,0.02880582324564457,-0.08899612458590418
1758447385607457800,1.961457763671875,0.07279226448833942,0.016974807937443256,-0.06742164083328098
1758447385617431000,1.97143115234375,0.06516074669659137,0.036269875515997405,-0.0627421047149226
1758447385627402800,1.98140283203125,0.04169628447890281,0.02322831537425518,-0.07438694980125873
1758447385637375000,1.991375,0.02373334228694439,0.033009120154380796,-0.07066394722275436
1758447385647348000,2.001347900390625,0.051045712104439735,0.05857873795777559,-0.07416698690764606
1758447385657319700,2.011319580078125,0.12320084773302077,0.06252046132087707,-0.06207436152119189
1758447385667292000,2.0212919921875,0.20437749420702456,0.029935704058408737,-0.017279928363859654
1758447385677264000,2.031263916015625,0.2022328833937645,-0.009708616326749324,-0.005798493678309023
1758447385687236900,2.04123681640625,0.1939578070014715,-0.019562486343085765,0.00797996590323746
1758447385697208800,2.051208740234375,0.1875923636227846,-0.019868775813281534,0.0014756255105137824
1758447385707181000,2.06118115234375,0.11051613820493221,0.015974983245134352,-0.018286182796955108
1758447385717153800,2.07115380859375,0.09701777420639991,0.033766952784359455,-0.04392053639963269
1758447385727125800,2.081125732421875,0.14876783518791198,0.050749359506368635,-0.04467117210384458
1758447385737098000,2.091097900390625,0.15997136624753475,0.03720423375666141,-0.019510281231813132
1758447385747070000,2.101070068359375,0.15421031850278377,0.05478899028599262,-0.02005527482870966
1758447385757043000,2.11104296875,0.08216039681434631,0.07907879741191863,0.08732048299126327
1758447385767015000,2.121014892578125,0.0395838223695755,0.14862112019360066,0.14584000157508997
1758447385776987100,2.130987060546875,-0.02477203768491745,0.24516367810368536,0.14046930485479533
1758447385786960000,2.1409599609375,-0.07467500949501991,0.2863058358311653,0.10112659776471554
1758447385796932000,2.15093212890625,-0.08745382704734801,0.30052900697290896,0.08244286701753735
1758447385806904000,2.160904052734375,-0.020744097343087194,0.28015286615937945,0.09123677965216338
1758447385816876800,2.170876708984375,0.06772036805152892,0.23169746280908582,0.08550199885983019
1758447385826849000,2.18084912109375,0.11187281351089477,0.14940613309144973,0.05372877717595547
1758447385836821000,2.190821044921875,0.12057868253588676,0.038625498731434345,0.0039547289751470085
1758447385846793000,2.20079296875,0.1407458567738533,-0.09498480707406998,-0.006368950510025024
1758447385856766000,2.210765869140625,0.23385493310391903,-0.14932371550500392,-0.04418112356457859
1758447385866738200,2.22073828125,0.28450550841093064,-0.1359682671085,-0.06257686768323183
1758447385876710000,2.2307099609375,0.2672463305741548,-0.06743745945692062,-0.05430467736776918
1758447385886683000,2.240682861328125,0.21379005019664762,0.012155132696032524,-0.024970482866466043
1758447385896655000,2.250655029296875,0.09715922850370406,0.025508827526867388,-0.025287659056857228
1758447385906626800,2.260626708984375,-0.04578676866292953,0.004215279607474804,-0.038750622948445376
1758447385916599000,2.27059912109375,-0.12968962523043154,0.010712824933230876,-0.05900573119819164
1758447385926572000,2.280572021484375,-0.13551146325170993,0.03538052546083927,-0.03160002054143697
1758447385936544000,2.2905439453125,-0.030012860947847365,0.10544336498528718,0.019894494776427744
1758447385946516000,2.300515869140625,0.06620178018212318,0.13754969108104706,0.05923420619182288
1758447385956489000,2.310489013671875,0.14532441673576832,0.11331687483936548,0.0758037212640047
1758447385966461000,2.3204609375,0.18242752820551394,0.051206747885048386,0.0727583622187376
1758447385976433200,2.33043310546875,0.1591799236088991,-0.01819587416499853,0.04632376161646098
1758447385986406100,2.34040625,0.09485562773644923,-0.06292904212176799,0.0093486239079386
1758447385996377900,2.3503779296875,0.033172201761603355,-0.02840659479498863,-0.020858809763938186
1758447386006350000,2.36035009765625,-0.012439210334420204,0.026847382654249668,0.006496193618886172
1758447386016321800,2.37032177734375,-0.06169686997830867,0.0831695738568902,0.01888783848453313
1758447386026295000,2.380294921875,-0.10929974815249442,0.09878127674758434,0.04280311320964247
1758447386036267000,2.39026708984375,-0.08676467573940753,0.12746318135261536,0.054409964373148975
1758447386046239000,2.400239013671875,-0.057147536110877986,0.14748364059627056,0.045825566303357476
1758447386056212000,2.4102119140625,-0.07406944481730461,0.1644029189541936,0.058686874507367606
1758447386066184000,2.420183837890625,-0.08162848189473151,0.13652473194748163,0.06283990253359079
1758447386076156000,2.430156005859375,-0.07191665069758892,0.10186784458607434,0.06932721872627735
1758447386086127900,2.4401279296875,-0.018096797704696653,0.08620821090042591,0.05616290898770093
1758447386096101000,2.45010107421875,0.03796820386648178,0.07337503281235694,0.009717786013893783
1758447386106072800,2.46007275390625,0.11952537409067153,0.08005757931619882,-0.002468618603236973
1758447386116045000,2.470045166015625,0.19875848528146742,0.07913608055710793,-0.03935326501671225
1758447386126018000,2.48001806640625,0.21344927393496035,0.06462532464563846,-0.023699768810905516
1758447386135990000,2.489989990234375,0.19502806658148764,0.07787731266766786,0.002335274547152221
1758447386145962000,2.4999619140625,0.12358195600509643,0.10155541763603687,-0.03754194127842784
1758447386155935000,2.50993505859375,0.04163374063670635,0.10415478647947311,-0.07785152063928544
1758447386165907000,2.519906982421875,0.010920622465014457,0.08739595938026905,-0.11152220997493713
1758447386175879000,2.52987890625,0.06487608453631401,0.09064356299936771,-0.12214443401526659
1758447386185851100,2.53985107421875,0.1910088940680027,0.06639584144949913,-0.10441314515471457
1758447386195823900,2.549823974609375,0.2687789469689131,0.0519993595674634,-0.04998060362357646
1758447386205796000,2.559796142578125,0.31722938188314437,0.05230418773293495,-0.003405862920731306
1758447386215768000,2.56976806640625,0.27420564819276333,0.07941518975943326,0.007597469391673803
1758447386225740800,2.57974072265625,0.14876082092523574,0.08230097432881593,0.022849947048537433
1758447386235713000,2.589713134765625,-0.046397009515762325,0.08254208960831165,0.012421382416784763
1758447386245685000,2.59968505859375,-0.13808862026333807,0.13096563651561735,0.011884900919906795
1758447386255658000,2.609657958984375,-0.11902385430932044,0.1826499387845397,0.01614266796223819
1758447386265630000,2.6196298828125,-0.05121346988677978,0.17505495361089704,0.031872517339885234
1758447386275602200,2.629602294921875,0.05084639014005661,0.1733122015967965,0.06200644738413393
1758447386285574000,2.639573974609375,0.14862462732493875,0.15335224036872386,0.0767353395583108
1758447386295547100,2.649547119140625,0.23668109644055366,0.12337912690937518,0.10561590854059905
1758447386305519000,2.65951904296875,0.3238753957688808,0.11347381896674633,0.1056000533843413
1758447386315491000,2.669490966796875,0.3561667230427265,0.07836538844555616,0.09283657953161746
1758447386325464000,2.679464111328125,0.3385714451193809,0.055578094837069505,0.046442638755775985
1758447386335436000,2.68943603515625,0.1652887618780136,0.012831716783344745,0.009082666448131204
1758447386345408000,2.699407958984375,-0.041918987318873405,0.017775602926313878,-0.03366729180216789
1758447386355380000,2.7093798828125,-0.11008593009412287,0.0776230456456542,-0.08750146558135748
1758447386365353200,2.719353271484375,-0.09289280323088168,0.11280074201077223,-0.09791545369848609
1758447386375325000,2.729324951171875,-0.07826923459470271,0.16268734720796346,-0.049249914728850125
1758447386385297200,2.739297119140625,-0.05747253028154373,0.181289756347239,0.027989684557169676
1758447386395270100,2.749270263671875,-0.013802899903059005,0.14854220973849297,0.08296002275943756
1758447386405241900,2.759241943359375,0.09710895962119102,0.06318184783905745,0.04650868972931057
1758447386415214000,2.769214111328125,0.23590017519593237,-0.036361060930788516,-0.005087349734269082
1758447386425187000,2.77918701171875,0.29375322922766206,-0.12406009491086005,-0.02054327754136175
1758447386435159000,2.789158935546875,0.2262614092350006,-0.17603461229801176,-0.01391465318184346
1758447386445131000,2.799131103515625,0.06946925754547119,-0.12741671186238526,-0.015761523157544432
1758447386455103000,2.80910302734375,-0.1327805769830942,-0.014915245059132574,-0.017034904094226658
1758447386465076000,2.819075927734375,-0.28433775062859057,0.05609568897038698,0.0038247824525460597
1758447386475048200,2.829048095703125,-0.3503799563348293,0.136658295199275,0.021044724257476628
1758447386485020000,2.83902001953125,-0.29195114824175833,0.18320260423123835,0.057446592122688885
1758447386494993000,2.848992919921875,-0.16446224792599676,0.19834025986939668,0.1247625075591728
1758447386504965000,2.858965087890625,0.017879355561733246,0.22398089708238839,0.16959475197624413
1758447386514936800,2.868936767578125,0.15217735137045382,0.19520371540933845,0.16810217533092944
1758447386524909000,2.878908935546875,0.20330314297378063,0.14585340904593466,0.10600088927019387
1758447386534882000,2.888882080078125,0.1739367632359266,0.06900251681655645,0.032138584397546945
1758447386544854000,2.89885400390625,0.13441373114287852,0.026956395986676214,-0.01247307607140392
1758447386554826000,2.908825927734375,0.05774667104780674,0.019464578926563263,-0.046587088727764785
1758447386564799000,2.918799072265625,0.031547230908274645,0.06442687946408987,-0.061102374683879315
1758447386574771000,2.92877099609375,0.05122223771512508,0.15182576145380736,-0.010908712831512093
1758447386584743000,2.938742919921875,0.029569793355464932,0.21184709943532942,0.07205141952577979
1758447386594716200,2.948716064453125,0.013364508485794067,0.22320815914422273,0.15169910286683588
1758447386604688000,2.95868798828125,0.04274199413955211,0.18637918844074008,0.15864015417639166
1758447386614660000,2.96866015625,0.10585106900334358,0.14558715932518243,0.08595471106339246
1758447386624631800,2.9786318359375,0.16137831043601036,0.08398001345694064,-0.0016246785923838614
1758447386634605000,2.98860498046875,0.1978875476658344,0.01949818893522024,-0.07020001950543374
1758447386644577000,2.998576904296875,0.16847499069869518,0.012939853332936763,-0.09756631146725267
1758447386654549000,3.008549072265625,0.17630641497671604,0.02420300562530756,-0.07659253355413675
1758447386664522000,3.01852197265625,0.1729442450672388,0.009143675920367241,-0.0737379478406161
1758447386674494000,3.028493896484375,0.09770926360189915,0.03931114290803671,-0.029772914712131022
1758447386684466000,3.0384658203125,0.039028526574373244,0.0651049248561263,-0.03342142728231847
1758447386694438000,3.04843798828125,-0.0015717793613672256,0.06433364822268485,-0.05091441387496888
1758447386704411100,3.0584111328125,-0.007170914542675018,0.05187485640496015,-0.07318122727330774
1758447386714382800,3.0683828125,0.07222060208022595,0.031211130821704864,-0.07267174338120967
1758447386724355000,3.07835498046875,0.11212006627023219,0.0008846738800406456,-0.05709489260818809
1758447386734328000,3.088328125,0.15565350304841993,-0.04131634525060653,-0.04916300363037735
1758447386744299800,3.0982998046875,0.21827333309054373,-0.03154313925504684,-0.03437259052731097
1758447386754272300,3.108272216796875,0.1833054800838232,-0.040056700578331945,-0.010950396548770367
1758447386764245200,3.118245361328125,0.10803893443644046,-0.0363441097959876,-0.029181561222858726
1758447386774217500,3.128217529296875,-0.009870236629247665,0.0034109774872660634,-0.032014629224315284
1758447386784189200,3.138189208984375,-0.04206570231318474,0.012598492549359798,-0.019613047486543654
1758447386794161400,3.148161376953125,-0.03245090174973011,0.02744768663495779,0.005290215362608433
1758447386804134400,3.158134521484375,-0.0224736976146698,0.04061901063621044,0.0148796257564798
1758447386814106000,3.168106201171875,0.03013210341334343,0.060226797425746915,0.024776092805527148
1758447386824078300,3.178078369140625,0.0582668955296278,0.06122779116183519,0.06500186634045094
1758447386834051300,3.18805126953125,0.04727203878462315,0.047621875135600567,0.0710611663794145
1758447386844023300,3.198023193359375,-0.002374327915906906,0.10325228468179702,0.06493362340983003
1758447386853995300,3.207995361328125,-0.033866613766551014,0.1458691911369562,0.06972005396876484
1758447386863967500,3.217967529296875,-0.02934942860305309,0.16259294692277906,0.05980418809950351
1758447386873940200,3.227940185546875,-0.06472469336688517,0.19071312599182128,0.05308014054149389
1758447386883912400,3.237912353515625,-0.07342121004164219,0.17022241888791323,0.03934208603557199
1758447386893884400,3.247884521484375,-0.010173018968105315,0.1555593950241804,0.01572064315788448
1758447386903857200,3.257857177734375,0.06884381912350654,0.09947627327442168,0.0024020561730489134
1758447386913829400,3.267829345703125,0.11728431716561316,0.0761547266587615,0.012983984735608101
1758447386923801300,3.27780126953125,0.1366892748594284,0.08502221598625183,0.060519679425098
1758447386933774300,3.2877744140625,0.1745510957419872,0.11624708307236432,0.0918856720149517
1758447386943746300,3.297746337890625,0.17921733398735523,0.13835107059180735,0.09296301892288028
1758447386953718500,3.307718505859375,0.17783610876202582,0.0996782255873084,0.10036376016605644
1758447386963690200,3.317690185546875,0.26679683324098585,0.03328472222536802,0.07234689534101635
1758447386973663200,3.327663330078125,0.32183482985198497,-0.022123569002747534,0.019984949538856742
1758447386983635500,3.337635498046875,0.27675650171935556,-0.039941549766063685,0.00129698100797832
1758447386993607200,3.347607177734375,0.1663338870167732,-0.033413901562988756,-0.02253817768562585
1758447387003580400,3.357580322265625,0.015350129345059393,0.03693915307968855,-0.013013393493182956
1758447387013552400,3.367552490234375,-0.13018529979288576,0.11417290714681148,0.0008438669456169008
1758447387023524400,3.3775244140625,-0.292421688362956,0.1573416022658348,-0.007814400077983737
1758447387033496300,3.387496337890625,-0.2886275567770004,0.2269412081927061,-0.012692235247418283
1758447387043469300,3.39746923828125,-0.12667290775775908,0.24957477254420518,0.008439546239003538
1758447387053441300,3.407441162109375,0.06924772374927997,0.2208519514068961,0.08556593094151467
1758447387063413500,3.41741357421875,0.27025311117470263,0.13878361679017542,0.11483016547914594
1758447387073386500,3.427386474609375,0.3531494210481643,0.05098375278413295,0.09621719841323792
1758447387083358200,3.437358154296875,0.3415624436289072,0.008240297339856624,0.020114969126693902
1758447387093330400,3.447330322265625,0.23147359092533587,-0.015234686271846293,-0.03241027747839689
1758447387103303400,3.457303466796875,0.07951952691674231,-0.011925123332440852,-0.072364796323888
1758447387113275400,3.467275390625,-0.013054711884260177,0.05310410593897104,-0.04450885768160224
1758447387123247400,3.477247314453125,-0.11292027673721312,0.11630348943471908,0.003292246478423476
1758447387133219300,3.48721923828125,-0.14017828601896762,0.17528320940881967,0.0686403324406594
1758447387143192300,3.4971923828125,-0.0953542249083519,0.19364216518104074,0.08601451495923101
1758447387153164300,3.507164306640625,-0.02057867764830589,0.179113289090991,0.07557579425964504
1758447387163136300,3.51713623046875,0.05143675724864006,0.10947072080522775,0.04982395175714045
1758447387173109200,3.527109130859375,0.11409867286682128,0.07973755358159541,-0.01820909897275269
1758447387183081500,3.53708154296875,0.13611293627619742,0.08387859890908002,-0.024254772345162927
1758447387193053200,3.54705322265625,0.10235504358112811,0.06619213557094335,-0.024736856773681936
1758447387203025400,3.557025390625,0.13178864333629609,0.0430652347445488,-0.019879772131331262
1758447387212998400,3.566998291015625,0.13864333153665065,-0.0012029460489749908,0.00039035102445632216
1758447387222970400,3.576970458984375,0.14196400039196014,0.029140754288434982,-0.008556085290759801
1758447387232942300,3.5869423828125,0.1832528731137514,0.061570905511081214,-0.007224580958671867
1758447387242915300,3.596915283203125,0.1809089403361082,0.06204056884944439,0.002702354293875396
1758447387252887300,3.60688720703125,0.1767430528283119,0.06198153213858604,-0.0023626374781131744
1758447387262859300,3.616859375,0.13574585652947424,0.012229074715077877,-0.02707951090969145
1758447387272831500,3.62683154296875,0.020457681617140767,-0.015353344215452671,-0.06507756192516535
1758447387282804200,3.63680419921875,-0.045913609912991524,0.029345044688880443,-0.06768445648793131
1758447387292776400,3.6467763671875,-0.015651742640137672,0.06301409005671739,-0.06218505535405129
1758447387302748400,3.65674853515625,0.07267302202284336,0.08563479492664337,-0.0004630144018679857
1758447387312721200,3.66672119140625,0.15788754571080207,0.060351592849195,0.037248145963624114
1758447387322693400,3.676693359375,0.20871055497527122,0.05920505316257477,0.05660320010110736
1758447387332665300,3.686665283203125,0.14626082080304623,0.03151478994339704,0.054979398291558026
1758447387342637300,3.69663720703125,0.03453706037402153,0.03708236094266176,0.03441913308277726
1758447387352610300,3.7066103515625,-0.06411094538271427,0.051126668386161325,0.04656600940711796
1758447387362582500,3.71658251953125,-0.10010229621827602,0.08401917642354964,0.04441624749470502
1758447387372554200,3.72655419921875,-0.0516571220010519,0.12952537457942961,0.03069729954805225
1758447387382527200,3.73652734375,0.02310673482120037,0.1319642921641469,0.015978015452437103
1758447387392499500,3.74649951171875,0.10012333900630474,0.10560177041739224,0.036881906467117365
1758447387402471400,3.756471435546875,0.13901333389282225,0.10386252553462981,0.04806585604343563
1758447387412444400,3.7664443359375,0.13051964631378649,0.12993687798976897,0.07085033664032817
1758447387422416400,3.77641650390625,0.05689911430776119,0.1432242295861244,0.05709602511934936
1758447387432388400,3.786388427734375,-0.059163552108407014,0.13097761921435594,0.07029029160477221
1758447387442360300,3.7963603515625,-0.10080839866101741,0.10306494541615246,0.041089039300754665
1758447387452333300,3.806333251953125,-0.026230419799685475,0.10552402900606393,-0.011466164051182568
1758447387462305300,3.81630517578125,0.09453063356578349,0.09773030638992786,-0.05368636280633509
1758447387472277500,3.826277587890625,0.24356617977917194,0.12728957835137844,-0.05691712488848716
1758447387482250200,3.836250244140625,0.31642332619726654,0.09937135159522295,-0.01910042178928852
1758447387492222200,3.84622216796875,0.2522749714136123,0.048826574750244614,0.027854623468033968
1758447387502194400,3.8561943359375,0.16471125425100325,0.010392799198627472,0.04308393944501877
1758447387512166100,3.866166259765625,0.1299526600807905,-0.03014642419964075,-0.019556275798007845
1758447387522139400,3.876139404296875,0.11410510260760784,-0.03904167831689119,-0.07350581958517431
1758447387532111400,3.886111328125,0.08894728047549724,-0.034270518392324444,-0.07958298407439142
1758447387542083300,3.896083251953125,0.1000116953253746,0.011347323444485663,-0.03997822851464152
1758447387552056300,3.906056396484375,0.031553076127171516,0.050821547959744924,-0.020345782207883894
1758447387562028300,3.9160283203125,-0.06666355247497559,0.0945481692224741,-0.02630322930756956
1758447387572000300,3.926000244140625,-0.11672609876096247,0.13354776196330784,-0.03346895621847361
1758447387581972500,3.935972412109375,-0.12201660638451575,0.13289075935930014,-0.03824256382845342
1758447387591945500,3.945945556640625,-0.039859716701507564,0.11731383552104234,-0.014892777498997747
1758447387601917200,3.955917236328125,0.101109427434206,0.07501549349576235,0.030696641960926353
1758447387611889400,3.965889404296875,0.2010731919646263,0.0419561044588685,0.041397703391127284
1758447387621862400,3.9758623046875,0.2232593048095703,0.013752046498656273,0.04528327612020075
1758447387631834400,3.98583447265625,0.2339776827007532,0.011310790826380252,0.06308934725001454
1758447387641806300,3.995806396484375,0.2252770743727684,-0.010516425578296185,0.02760046604387462
1758447387651779300,4.005779296875,0.17880290796756743,0.040465865901112556,0.0023724282197654244
1758447387661751300,4.015751220703125,0.11905249588191509,0.12224690800905227,0.024124898887798188
1758447387671723300,4.02572314453125,0.035945758128166194,0.17038813084363935,0.059131659132800996
1758447387681695200,4.0356953125,-0.09001754005551338,0.19178104748427866,0.07046455219313502
1758447387691668200,4.045668212890625,-0.18542495645582674,0.19603607458025216,0.08563041101247072
1758447387701640400,4.055640380859375,-0.20301848081350327,0.1978165282562375,0.10814159109331667
1758447387711612200,4.065612060546875,-0.10093582443296908,0.19195640405118464,0.08736793886218219
1758447387721585200,4.075585205078125,0.06853460704386234,0.1609992479905486,0.06807886263299733
1758447387731557400,4.085557373046875,0.23804420148730276,0.09106938719600438,0.009847403742931783
1758447387741529300,4.095529296875,0.25235738900005816,0.045885552862286565,0.006515409776009619
1758447387751501300,4.105501220703125,0.2126584158182144,0.03993102837204933,0.01040737571325153
1758447387761474600,4.115474609375,0.13598843311369418,0.08978899199664592,0.042852103450521824
1758447387771446500,4.125446533203125,0.0792763658106327,0.11515928783565758,0.05601078716591
1758447387781418500,4.13541845703125,0.08372165478169917,0.09700316115915775,0.052388687678612766
1758447387791391500,4.1453916015625,0.08146773837506771,0.05186667309850454,0.03755768683683127
1758447387801363500,4.155363525390625,0.12236088977754116,0.027325813820958136,-0.00837345873285085
1758447387811335700,4.165335693359375,0.16140987461805342,-0.004523322643339634,-0.05981496522184461
1758447387821307600,4.1753076171875,0.12587445085644722,-0.05098872122019529,-0.051956616404280065
1758447387831280400,4.1852802734375,0.054042555832862854,-0.03115764706879854,-0.06874792100097983
1758447387841252600,4.195252685546875,0.016021160474419593,0.031102117489278314,-0.0630762320401147
1758447387851224600,4.205224609375,0.009071195206046104,0.06297317352443933,-0.03285677913688123
1758447387861197600,4.215197509765625,0.0046831893801689145,0.04414718476235866,-0.015035437372699379
1758447387871169500,4.22516943359375,0.03250818489491939,0.048285892002284524,0.0074609104651957745
1758447387881141800,4.235141845703125,0.12407061630487441,0.06900222455561161,-0.008620053905062377
1758447387891113500,4.245113525390625,0.1812485475540161,0.06278320391029119,-0.011061090381629765
1758447387901086500,4.25508642578125,0.1752922694981098,0.052963236163556575,0.01389919988438487
1758447387911058700,4.26505859375,0.12859306216537952,0.04176291997432709,0.018540157558023927
1758447387921030400,4.275030517578125,0.05631985311508178,0.07036942125558852,0.004733640925772488
1758447387931003600,4.285003662109375,-0.06190612881481647,0.08391250117868185,-0.0072910703236237166
1758447387940975600,4.2949755859375,-0.13614099332690238,0.09127776924967765,-0.014015337077341972
1758447387950947600,4.304947509765625,-0.164556940472126,0.07026829896867275,-0.01963401720933616
1758447387960919600,4.31491943359375,-0.15600129357278347,0.061063248249888416,-0.02576725926734507
1758447387970892500,4.324892578125,-0.12239420752525329,0.07724661354869604,0.0002951104890555143
1758447387980864500,4.334864501953125,-0.036518005058169364,0.08762889135330915,0.002534998370334506
1758447387990836700,4.344836669921875,0.06133972710371017,0.07905161714404821,-0.005297229625284672
1758447388000809700,4.354809814453125,0.12580898440480232,0.08558744865357876,-0.03568549975678324
1758447388010781400,4.364781494140625,0.17919395311176775,0.12116612703502178,-0.05678341550622135
1758447388020753700,4.374753662109375,0.14363982464969158,0.10040741664469241,-0.036914164768904446
1758447388030725400,4.384725341796875,0.07223404608368873,0.06161416013091802,-0.04523278804197907
1758447388040698600,4.39469873046875,0.06081424192488193,-0.0002554360657930374,-0.03565528728161007
1758447388050670600,4.404670654296875,0.10844167001843452,-0.04961947869360447,-0.035376251144520934
1758447388060642600,4.414642578125,0.22688801670074463,-0.08269698790907859,-0.07086443823091686
1758447388070615600,4.424615478515625,0.3594353694498539,-0.04581657927930355,-0.08885784862637519
1758447388080587500,4.43458740234375,0.3570569498807192,-0.0021378888115286825,-0.04229947453644126
1758447388090560800,4.444560791015625,0.2475672321140766,0.04579816683977842,-0.023120726813934744
1758447388100532500,4.454532470703125,0.055439563149213784,0.0947501215353608,-0.02322250668797642
1758447388110504700,4.464504638671875,-0.1810486410677433,0.1268006257906556,-0.04465085996817797
1758447388120477700,4.474477783203125,-0.28476620517373086,0.1774868569329381,-0.05873367279116064
1758447388130449400,4.484449462890625,-0.19270517659187317,0.17810557335317134,-0.02592489751446992
1758447388140421600,4.494421630859375,-0.013995792126655578,0.15256781199276445,0.0046529769049957394
1758447388150394600,4.50439453125,0.1788964314699173,0.1002203696399927,0.024399514578096568
1758447388160366600,4.51436669921875,0.34142332741916176,0.06820376765429974,0.005655468478426337
1758447388170338600,4.524338623046875,0.3872849148839712,0.031901158912479875,-0.046639695697836575
1758447388180310500,4.534310546875,0.3488204519331455,-0.0028723405659198758,-0.07572152287326753
1758447388190283500,4.544283447265625,0.21323943057656286,-0.00868745658546686,-0.06953406640999019
1758447388200255700,4.554255859375,0.020015198546648023,0.015628361764550208,-0.05007167944051325
1758447388210227500,4.5642275390625,-0.1094096382677555,0.050213060672581196,-0.0498344000859186
1758447388220200400,4.574200439453125,-0.19557284098267555,0.09037176032066345,-0.027203466082923112
1758447388230172700,4.584172607421875,-0.18123276546299458,0.14071867650598285,-0.004675627128221094
1758447388240144400,4.594144287109375,-0.07802315087914466,0.178848500674963,0.026414836455881593
1758447388250116600,4.60411669921875,0.06110241121649742,0.15547580839395522,0.05574775231555104
1758447388260089600,4.614089599609375,0.18783786281645296,0.11092793387621641,0.07441814865712076
1758447388270061600,4.6240615234375,0.1664998912334442,0.08046002263724804,0.0764727796319872
1758447388280033500,4.634033447265625,0.11054945595264434,0.05060381355583667,0.03561627044547349
1758447388290006500,4.644006591796875,0.04072130196690559,0.028141806378960608,0.018792013427242637
1758447388299978500,4.653978515625,0.015546528699994086,0.0283665550455451,0.017376630203984677
1758447388309950500,4.663950439453125,0.02742927419543266,0.049345922449231146,0.03408646706230938
1758447388319922700,4.673922607421875,0.0827922649770975,0.05575520496964454,0.05548413294330239
1758447388329895400,4.6838955078125,0.1337169810503721,0.0933870164886117,0.06575589957814663
1758447388339867600,4.69386767578125,0.14674305136203766,0.07899287269413471,0.07547324720062315
1758447388349839600,4.703839599609375,0.11980360651016235,0.0809735251173377,0.0953928398856893
1758447388359812600,4.7138125,0.02452361588180065,0.08236644078046083,0.08006967161279172
1758447388369784600,4.72378466796875,-0.0263034850358963,0.050146717438101764,0.033982056839764116
1758447388379756800,4.7337568359375,-0.04561784183681011,0.017045827347040174,-0.013824308017268775
1758447388389728500,4.743728515625,-0.028751462709903714,0.03186491855531931,-0.0031009982226416466
1758447388399701500,4.753701416015625,0.046205286335945124,0.04331277976483106,0.02968742838576436
1758447388409673700,4.763673828125,0.12704349463582038,0.09425298566818237,0.03198722976073622
1758447388419645400,4.7736455078125,0.19419453836679457,0.10003975237607955,0.0614135229922831
1758447388429618700,4.78361865234375,0.21103402948677538,0.08838964659273624,0.0714844332927838
1758447388439590700,4.793590576171875,0.15816402456462383,0.06367723014056682,0.0694943189214915
1758447388449562600,4.803562744140625,0.04903378776013851,0.006589023001492023,0.033761034500226376
1758447388459534600,4.81353466796875,-0.04905833767950535,0.004379822519421577,-0.007546287193708121
1758447388469507600,4.823507568359375,-0.05519464847743511,0.02954115178287029,-0.0495433812500909
1758447388479479600,4.8334794921875,-0.008650339445471764,0.05059826059788465,-0.06075973525866866
1758447388489451500,4.843451416015625,0.05418459465205669,0.06538754118978977,-0.04378722887616604
1758447388499424800,4.8534248046875,0.11860241402685641,0.067986910033226,-0.01600859325379133
1758447388509396500,4.863396484375,0.12436989151239394,0.09183189600110053,-0.0020921499736607074
1758447388519368700,4.87336865234375,0.09061959760189056,0.0991793361544609,-0.03696797731537372
1758447388529340400,4.88334033203125,0.022682956451177596,0.06884849529862404,-0.06818908154182135
1758447388539313700,4.893313720703125,0.004521276816725731,0.04469108238071203,-0.1488901463933289
1758447388549285600,4.90328564453125,0.0799123256266117,0.09710925188213586,-0.17549867879040537
1758447388559257600,4.913257568359375,0.22555296870470046,0.12461100679188966,-0.1225751901153475
1758447388569230600,4.923230712890625,0.29754210011661053,0.1356637312039733,-0.05559891842938959
1758447388579202600,4.93320263671875,0.2936696425974369,0.13535393460243939,-0.012139679398573935
1758447388589174500,4.943174560546875,0.24401450806856154,0.0849038503035903,-0.018776048673130572
1758447388599147500,4.9531474609375,0.1964157215476036,0.019236615389585494,-0.09922416167687624
1758447388609119700,4.96311962890625,0.13005845854282377,-0.04500058672130108,-0.1722697433391586
1758447388619091500,4.973091552734375,0.0776952340990305,-0.01928074679225683,-0.19783497722838073
1758447388629063700,4.983063720703125,0.02968552868962288,0.12246230432540177,-0.15786679518371818
1758447388639036700,4.99303662109375,-0.05710369696915149,0.20709961264729498,-0.12135324710495769
1758447388649008600,5.003008544921875,-0.15684534318149088,0.17534604551196098,-0.1434031298169866
1758447388658980600,5.012980712890625,-0.19239011929333208,0.16069149721562861,-0.18460271682012824
1758447388668953600,5.02295361328125,-0.139064187297225,0.16402122616022824,-0.18899222048334777
1758447388678925600,5.032925537109375,-0.029774960538744923,0.140815414878726,-0.1189763984384015
1758447388688897500,5.0428974609375,0.09871990194916724,0.10836334408521651,-0.06252689106166362
1758447388698869500,5.052869384765625,0.2477192078053951,0.08583207106441258,-0.033566315645724536
1758447388708842500,5.062842529296875,0.37245851715207096,0.09486527234762906,0.006214161807112395
1758447388718814700,5.072814697265625,0.3990057478159666,0.07918518039584159,-0.02865373795647174
1758447388728786400,5.082786376953125,0.34739772565364835,0.05273351906090974,-0.04687080103997141
1758447388738759400,5.092759521484375,0.34479368063509463,0.07661679121255874,-0.04265665394365787
1758447388748731600,5.102731689453125,0.30961832235753534,0.10546703812181948,-0.03950111252218485
1758447388758702600,5.11270263671875,0.29996318978369235,0.1154962647050619,-0.01163319118116051
1758447388768674600,5.122674560546875,0.31349604057371616,0.13178250585645437,0.002496127664670348
1758447388778647300,5.132647216796875,0.3103460521101951,0.1329243693679571,0.03179689482040703
1758447388788619500,5.14261962890625,0.33440438856780524,0.19104191955476998,0.06371310517154634
1758447388798591500,5.152591552734375,0.33017069652080533,0.24750673409849402,0.07090429531726986
1758447388808564500,5.162564453125,0.24714812991917132,0.26097499521970746,0.03957432388886809
1758447388818536400,5.172536376953125,0.134231944835186,0.3060743661403656,-0.0046573242865502835
1758447388828508700,5.1825087890625,0.07770283288359642,0.30114246269613504,-0.06578647737950086
1758447388838480400,5.19248046875,0.11284662697911262,0.27102204972058536,-0.09403842960204929
1758447388848453600,5.20245361328125,0.2118611279606819,0.18720511787086724,-0.09662113957162946
1758447388858425300,5.21242529296875,0.2989233253419399,0.16738485737442968,-0.10883691641371697
1758447388868397600,5.2223974609375,0.4060100736200809,0.15539777472168206,-0.12873188611418007
1758447388878370600,5.23237060546875,0.3850146318644285,0.14801643229871989,-0.11008351894132792
1758447388888342300,5.24234228515625,0.36697044112980365,0.19072978486567735,-0.0819075728307478
1758447388898314500,5.252314453125,0.3538087617397308,0.23515198717713354,-0.028680717294942586
1758447388908286500,5.262286376953125,0.31523090154230593,0.2395242109119892,0.0009933036199770867
1758447388918259500,5.272259521484375,0.2621364402145147,0.20898586478531359,-0.038143688297551125
1758447388928231400,5.2822314453125,0.2750987976402044,0.19106179329901932,-0.13418432456748558
1758447388938203600,5.29220361328125,0.3639572307884693,0.1680120493620634,-0.14332657571574672
1758447388948176400,5.30217626953125,0.4917389765709638,0.1617889370635152,-0.0633155389550142
1758447388958148400,5.3121484375,0.4642255312234163,0.18720511787086724,-0.03586757832542062
1758447388968120600,5.32212060546875,0.4525093744665384,0.1859957420811057,0.004529697585199028
1758447388978092500,5.332092529296875,0.5746498994916677,0.2168757412523031,-0.07236702481359243
1758447388988065500,5.3420654296875,0.5725608182579278,0.16687223167717455,-0.1356678593898192
1758447388998037500,5.35203759765625,0.5217606053471565,0.15679770464748144,-0.21921483345804735
1758447389008009500,5.362009521484375,0.4219552462488413,0.08270078730136156,-0.2239289111668244
1758447389017982500,5.371982421875,0.35570144361853595,0.06351677888184785,-0.2540048274135217
1758447389027954700,5.38195458984375,0.32695465708374977,0.04585428094118833,-0.3616507804770022
1758447389037926400,5.391926513671875,0.4042062390685081,-0.062384267720580096,-0.34127401860896495
1758447389047898600,5.401898681640625,0.6288496917128562,-0.08414455636888742,-0.2611433192576282
1758447389057871600,5.41187158203125,0.8571130884200334,-0.041923371233046056,-0.3265898423593491
1758447389067843300,5.42184326171875,0.9286813640713691,0.01479044963568449,-0.498176243076846
1758447389077815600,5.431815673828125,0.8421382221281528,0.13663900597691536,-0.6208150730129331
1758447389087788500,5.44178857421875,0.8398650164991617,0.1668462204530835,-0.7432278391081839
1758447389097760500,5.451760498046875,1.015212231054902,0.21509791792482136,-0.8427308542590588
1758447389107732500,5.461732421875,0.8390092764526605,0.3088160660639405,-0.7691404981955885
1758447389117704400,5.471704345703125,0.5140156903088092,0.348023164075613,-0.5930015487402677
1758447389127677400,5.481677490234375,0.4471417099535465,0.43979514658302066,-0.5433029403958469
1758447389137649700,5.491649658203125,0.7223176644831896,0.6624599926307797,-0.6047128101263195
1758447389147621400,5.501621337890625,1.0235872606903313,0.8028527981832623,-0.6823112327873706
1758447389157594400,5.511594482421875,1.130982636526227,0.7754737928703427,-0.688999843705818
1758447389167566600,5.521566650390625,0.9742150347560644,0.6597565788909793,-0.7661153782207518
1758447389177538300,5.531538330078125,0.5984229892671108,0.1695566484555602,-1.064443002691865
1758447389187510500,5.541510498046875,0.6093091249406337,0.15660568920671938,-0.1297014983313158
1758447389197483500,5.5514833984375,1.0823527533918618,-0.206655668272078,-0.6727009622685611
1758447389207455500,5.56145556640625,1.607976463907957,-0.6380883524402976,-0.9819685714922844
1758447389217427500,5.571427490234375,2.131386590027809,-0.7311392688423395,-1.4559160169154404
1758447389227400400,5.581400390625,2.292666116264462,-0.7351699856631457,-1.6341630445659159
1758447389237372400,5.591372314453125,2.110425635063648,-0.2332505374699831,-1.6523412369437516
1758447389247344400,5.601344482421875,1.557921516406536,0.9422997011877596,-1.5261417919166385
1758447389257316600,5.611316650390625,1.027862453791499,1.1012835177026687,-0.6761043409712613
1758447389267289300,5.621289306640625,0.5870674825161695,0.8615998784452676,0.1802481018071994
1758447389277261600,5.631261474609375,-0.08856909481287002,0.8687273922376334,1.1237256511352955
1758447389287233500,5.641233642578125,-0.6710083330065012,0.7562045903854072,1.8737961226798594
1758447389297205500,5.65120556640625,-2.3198498912662266,1.1111503202658146,2.923266158775985
1758447389307178500,5.661178466796875,-2.261371983334422,1.1495681675959377,1.2669754535540938
1758447389317150700,5.671150634765625,-2.5194968498200176,1.1253954109784214,0.11594813665840774
1758447389327122400,5.681122314453125,-2.748191039159894,0.9826737971521914,-0.4658429032921791
1758447389337095400,5.691095458984375,-2.7410844220250845,0.6469194552801549,-0.9831605577558279
1758447389347067600,5.701067626953125,-3.2583693432629106,0.3792075895534828,-0.8354811753917485
1758447389357039400,5.711039306640625,-3.706287298285961,0.2262891009595245,-0.546024583912082
1758447389367011600,5.721011474609375,-3.81177362563014,0.2569582521253265,-0.3868137902408838
1758447389376984600,5.730984619140625,-3.6903327733069657,0.49558118508234617,-0.5237543364476412
1758447389386956500,5.74095654296875,-3.301991042846441,0.8890775948923081,-0.7824155017670243
1758447389396928500,5.750928466796875,-3.2518466634958982,1.0919779292188585,-0.7686891011662781
1758447389406901500,5.760901611328125,-2.7738591489017006,1.1195969538327306,-1.2222566063836215
1758447389416873500,5.77087353515625,-1.6440917333841323,0.8135529097653925,-2.4293854940012096
1758447389426845400,5.780845458984375,1.3277695294737815,-0.5414276845758781,-3.148234605590999
1758447389436817400,5.7908173828125,3.631660804107785,-2.7309178327977657,-2.0324752571597693
1758447389446790400,5.800790283203125,1.143202066630125,-2.3176798537507652,-1.0103598225876689
1758447389456762600,5.8107626953125,-0.07691957355141639,-1.1355040594734251,-1.1356696252986789
1758447389466734300,5.820734375,1.693253531438112,-0.6320494376022369,-0.6514405859664082
1758447389476707600,5.83070751953125,3.339630745410919,-0.43279915021583437,0.07871990097165107
1758447389486679600,5.840679443359375,3.42618323970437,-0.3076804861627519,0.05373480505794286
1758447389496651500,5.850651611328125,2.2485358826369044,0.11604176975861191,0.026616204246878623
1758447389506623500,5.86062353515625,-0.3424585156857967,1.4004355372339485,0.2127466786235571
1758447389516596500,5.870596435546875,0.7662327940553426,2.2217262016445396,-0.12340747622102498
1758447389526568400,5.880568359375,2.812425318661332,3.1843773475959893,-1.416382463428378
1758447389536540400,5.89054052734375,1.9897715492039918,2.683141936144233,-1.078068207940459
1758447389546513700,5.900513671875,2.231839599379897,1.6681012622639535,-0.23531740687191485
1758447389556485400,5.9104853515625,3.7101819676369425,0.738767498698458,0.4311231798276305
1758447389566457600,5.92045751953125,5.751944985362887,-0.08202756421491503,0.6857866538129747
1758447389576429600,5.9304296875,6.288014686569571,-0.6386613300226628,1.0903593881063163
1758447389586402300,5.94040234375,4.731380871886015,-0.876885564251989,2.366749297346175
1758447389596374500,5.95037451171875,3.922805312141776,-1.1741712053894997,2.529775082728267
1758447389606346500,5.960346435546875,1.3970131615698336,-1.4165895303077995,1.2235313755597919
1758447389616319500,5.970319580078125,-1.9940099174261092,-0.741285692064464,0.7747982316963374
1758447389626291500,5.98029150390625,-1.126267882964015,0.7253188921257853,-0.12188833122919313
1758447389636263700,5.990263671875,2.9503970345467327,1.492774067582935,-1.1688549788028002
1758447389646235400,6.0002353515625,3.618684418156743,1.7758432595804332,-1.4758569811820983
1758447389656208600,6.010208740234375,2.2537486488491294,1.8760284117765724,-1.6672639346569775
1758447389666180600,6.0201806640625,1.8582991322100162,1.5964678124219178,-1.6346408912107349
1758447389676152600,6.030152587890625,1.9221148940384387,1.151609610295668,-1.2632071870617567
1758447389686125600,6.04012548828125,2.481030048781633,1.0462767930127679,-1.1282519694533197
1758447389696097500,6.05009765625,3.5670711352974176,1.4212585450321435,-1.1075309607248753
1758447389706069500,6.060069580078125,4.554084861350059,1.8461467759929597,-1.169791090609133
1758447389716041500,6.07004150390625,4.872819971621036,1.823977760413289,-1.1241484796572476
1758447389726014700,6.0800146484375,2.9494729054391384,1.7560919726669788,-0.7422994722168892
1758447389735986400,6.089986328125,2.924853427967429,2.13516537791416,-0.5852024192966521
1758447389745958700,6.099958740234375,4.214676380884647,2.666444191582501,-0.1105059090718627
1758447389755932000,6.109931884765625,3.2581565772950647,3.144729520079493,0.13586071508079767
1758447389765903600,6.119903564453125,2.828216762033105,3.648186406973004,1.080243213891983
1758447389775875800,6.129875732421875,3.1147242579162118,3.9319989646837112,1.9676152469754218
1758447389785847600,6.13984765625,3.124528443571925,3.9446635082066055,2.435578503422439
1758447389795820800,6.14982080078125,2.882073439905047,3.8846950694561,2.513274322043359
1758447389805792800,6.159792724609375,2.124852804344892,3.899500132139027,2.2229314857810736
1758447389815764700,6.1697646484375,1.1894424242794512,4.220589404320717,1.8977157813191412
1758447389825737700,6.17973779296875,0.5661626416534185,4.43379025645256,1.9456039061754942
1758447389835709700,6.189709716796875,0.010762217032909393,4.102426550754904,1.8882313291370867
1758447389845681700,6.199681640625,-0.9878472542673349,3.3717131061092016,1.2159756264179944
1758447389855654000,6.20965380859375,-2.068207372537255,2.7381951303243635,0.4629641329854727
1758447389865627000,6.219626953125,-2.830348513364792,2.3423940237686036,-0.31014965275526046
1758447389875598600,6.2295986328125,-3.2739857223287223,2.1425927514359353,-1.4296137009233236
1758447389885570800,6.23957080078125,-3.0378403402000664,1.8724847478203475,-2.4461563037991523
1758447389895542800,6.249542724609375,-2.223556924203038,1.5545250058360396,-2.560133396112919
1758447389905515800,6.259515869140625,-1.952806969422102,1.363184103334695,-1.8181220201224089
1758447389915487700,6.26948779296875,-2.530731360539794,1.1790613155186176,-1.2237491830289362
1758447389925460000,6.2794599609375,-3.8912703561931847,0.7348432379268109,-1.9577391651272773
1758447389935432700,6.2894326171875,-4.935218852388859,0.05076221898794174,-3.5458418847858906
1758447389945404700,6.29940478515625,-4.679279513248801,-0.7228308747023343,-5.119813203239441
1758447389955377000,6.309376953125,-4.070502887749671,-1.1440902476415038,-6.02589110583663
1758447389965348600,6.3193486328125,-3.48349561098814,-1.0942837219431996,-6.1171133455067865
1758447389975321900,6.32932177734375,-2.438808279123902,-0.9294026640832423,-5.628133896777033
1758447389985293800,6.3392939453125,-0.9296031550914049,-0.9130293291702866,-4.4500522399455305
1758447389995265800,6.349265869140625,0.29151334134638307,-0.9118564859986305,-3.3419606496632097
1758447390005238800,6.35923876953125,0.5500327601075172,-1.1759098657503724,-2.8761276832431553
1758447390015210800,6.369210693359375,0.2097656169861555,-1.5342629929214715,-3.038238399606943
1758447390025182700,6.3791826171875,-0.09242518571913241,-1.8676848001927135,-3.834672270658612
1758447390035155000,6.389155029296875,-0.5480927319556474,-2.307424417196214,-4.895867669731378
1758447390045127700,6.399127685546875,-1.0094546904414892,-2.4948919853955505,-5.656091578760742
1758447390055099600,6.409099609375,-1.037128002525866,-2.3210013993889094,-5.720449192380904
1758447390065071900,6.41907177734375,-0.7500856691136956,-1.8386603657603262,-4.98322037449181
1758447390075044600,6.429044677734375,-0.43708851797282694,-1.425187116652727,-3.845414613947272
1758447390085016800,6.439016845703125,0.07856675623655318,-0.7823454322054981,-2.7142075210154055
1758447390094988800,6.44898876953125,0.738251438935101,0.16388766290843484,-1.646570690718293
1758447390104960800,6.458960693359375,1.0928621647074819,0.7153937104389071,-0.9934230085730552
1758447390114933800,6.468933837890625,0.5305687657028436,0.956433002088964,-0.5878945809900761
1758447390124905700,6.47890576171875,-0.7906777917429805,1.2648726360559464,-0.918740984815359
1758447390134877700,6.488877685546875,-1.9297417356550692,1.3876213561072945,-1.8615584262669085
1758447390144850700,6.4988505859375,-2.3435275578431782,0.7716118567451834,-3.051146396496892
1758447390154823000,6.508822998046875,-2.285023784817755,-0.9861533098310231,-4.6891351368308065
1758447390164794600,6.518794677734375,-1.7204546959660947,-2.398501695437729,-5.54669421545267
1758447390174766800,6.528766845703125,-0.8349218610085547,-2.7168597890898583,-5.678593917948008
1758447390184739800,6.53873974609375,-0.1085940841011703,-2.594723063457012,-5.36541585728228
1758447390194711800,6.5487119140625,0.22287235131859778,-2.3222078525692225,-4.80125344953537
1758447390204683800,6.558683837890625,0.09442205862477421,-1.9799992199912666,-4.597862628278136
1758447390214656800,6.56865673828125,-0.5514817898720502,-1.866853902326524,-5.555724494126439
1758447390224628700,6.578628662109375,-1.4012754951894282,-1.8838626125335691,-6.204544376200437
1758447390234600700,6.5886005859375,-1.4137925930656492,-2.0872768146663905,-6.601216712632775
1758447390244572700,6.59857275390625,0.15447700661495328,-2.0139818613529203,-5.868237368881702
1758447390254545700,6.608545654296875,2.950450226038694,-1.8958841819778083,-3.56669353415668
1758447390264518000,6.618517822265625,5.2386511795878405,-1.7499316964715719,-1.2648334730893374
1758447390274489600,6.628489501953125,4.783781505730748,-1.042394837012887,0.38768765046596526
1758447390284462600,6.638462646484375,3.47472953620851,-0.026559797884523867,2.1569266894757746
1758447390294434800,6.648434814453125,2.318850943356752,1.0308084441155194,3.208638220888376
1758447390304406500,6.658406494140625,3.224494546189904,1.7183090622395276,4.353230280572176
1758447390314378800,6.668378662109375,5.864497013309598,2.946138208058476,6.792244895923138
1758447390324351700,6.678351806640625,4.968248430809378,2.787897903387248,6.925322410026192
1758447390334323700,6.68832373046875,2.82255625205338,2.0586828806057573,6.095058165565133
1758447390344295700,6.698295654296875,1.5624435238756238,0.5282679414145648,4.451393717682361
1758447390354268700,6.7082685546875,2.1094823628641666,-0.5193292865470052,3.9418268234759566
1758447390364240600,6.71824072265625,1.989628487471491,-1.2274370777614414,4.517668563100695
1758447390374212900,6.728212890625,0.5823768404819071,-1.393718357808143,5.341505404862761
1758447390384184800,6.738184814453125,0.39802681978121396,-0.8397606793418526,4.669712643480301
1758447390394157600,6.748157470703125,0.07947218064367771,-0.4536804640725255,3.966155209046602
1758447390404129800,6.7581298828125,-1.6028449462383985,-0.019838819066435098,3.7384687354445454
1758447390414101800,6.768101806640625,-0.3432185402728617,0.4745119474381208,3.157576726692915
1758447390424073700,6.77807373046875,-0.8693277692835778,-0.042836394424736496,3.5648400152444837
1758447390434046700,6.788046630859375,-0.9327162456106394,-0.33780893631428477,4.715352697148919
1758447390444019000,6.79801904296875,-0.48350664334185417,0.16105170883014797,2.821500020998716
1758447390453990700,6.80799072265625,-0.6843149738252162,-0.35989831078648565,-0.01756663635075092
1758447390463963600,6.817963623046875,-0.33177111745476723,-0.08449673080742359,-0.47827393032014365
1758447390473936000,6.827935791015625,-0.8087696210116148,0.17928572304844856,-1.8167969089984892
1758447390483907600,6.837907470703125,-0.3914449571728706,0.7267150226593018,-2.227310723778605
1758447390493879800,6.8478798828125,0.4939718501895666,1.4214482223853468,-2.809995461165905
1758447390503852800,6.857852783203125,1.2530968580663204,1.7366610037490724,-1.0901578741848468
1758447390513824800,6.86782470703125,2.239810724389553,0.8398580022364854,0.5282809470266103
1758447390523796700,6.877796630859375,1.1174936248779297,-0.17820961824953555,-0.4748953937977552
1758447390533769700,6.887769775390625,-3.1191666242778298,0.5126967166647315,-2.6217349890232087
1758447390543741700,6.89774169921875,-3.808624221688509,1.2543529956072568,-3.021138211724162
1758447390553714000,6.9077138671875,-2.8766344637215138,1.4064353621706365,-2.2114783638745545
1758447390563685600,6.917685546875,-2.440678749170899,1.4857295558989048,-1.308922790184617
1758447390573658600,6.92765869140625,-0.6026788931459188,1.594385745450854,-0.23226211095452307
1758447390583630800,6.937630859375,2.4139713595092296,1.728707706657052,1.052307159218192
1758447390593602600,6.9476025390625,3.945241015833616,0.822948953011632,2.2294226013660428
1758447390603575800,6.957575927734375,3.045705666747689,-0.15600392392128706,2.3525609052568672
1758447390613547800,6.9675478515625,2.079340176448226,-0.6924351519167423,1.816396511504054
1758447390623519700,6.977519775390625,1.3878840986967087,-1.2525386396616696,0.4773714285224676
1758447390633491700,6.98749169921875,0.6524059238672256,-1.4011667741179465,-0.7101929269254207
1758447390643464700,6.997464599609375,0.00828793587386608,-1.5676374392569064,0.020583353823423384
1758447390653436700,7.007436767578125,-0.6145253982841968,-1.3197177404433489,0.8086006941854953
1758447390663408600,7.01740869140625,-1.2985808443903921,-0.7116729363501072,1.0808557928323745
1758447390673382000,7.0273818359375,-1.261667118012905,0.011680500921607016,1.2521662992179392
1758447390683353600,7.037353515625,-1.033615902751684,0.4723205748736858,1.6027309644699095
1758447390693325800,7.047325927734375,-0.3350129489202052,0.6865472629219294,1.5310481225281953
1758447390703297800,7.0572978515625,-0.31804537444114683,0.8476204529315233,1.016269631153345
1758447390713270800,7.067270751953125,-0.5655822114169597,0.9991296957820653,0.5361410128772258
1758447390723242800,7.07724267578125,-0.2620130695631727,1.1846785708785057,0.43821138452291486
1758447390733215000,7.087215087890625,-0.6075251641333103,1.0922300042837858,0.5433142655074596
1758447390743187700,7.097187744140625,-1.358371588486433,0.05034487035870552,0.3410731988072395
1758447390753159400,7.107159423828125,-1.2147183198332785,-1.3192992227703333,0.2659352479755878
1758447390763131600,7.117131591796875,0.20270634612441063,-1.6010522176027298,0.12121639591753482
1758447390773103400,7.127103271484375,0.7890542821943759,-0.9425725267797708,-0.2465653615951538
1758447390783076600,7.13707666015625,0.28083120381236076,-0.7728887448132038,-0.46419630512893195
1758447390793048600,7.147048583984375,-0.14381167408525944,-2.314787347179651,-1.3855343207001685
1758447390803020500,7.1570205078125,0.2381640284746885,-2.588337746334076,-1.2100912445545196
1758447390812993500,7.16699365234375,0.5606739811092615,-2.1167770499169825,-0.7724468462646007
1758447390822965500,7.176965576171875,0.4116922109097242,-1.5574340251505374,-0.336734292820096
1758447390832937500,7.1869375,0.2553214995026588,-1.0401724847882985,0.48624447080790995
1758447390842909700,7.19690966796875,0.149511931553483,-0.7984697607934474,1.1702896877810358
1758447390852882700,7.206882568359375,0.18433716121912003,-0.747824446183443,1.3800433220684527
1758447390862854400,7.2168544921875,0.20184183824956417,-0.8754203140050172,1.6230322864815592
1758447390872826600,7.22682666015625,0.017222371224034576,-1.4558803610801696,2.127465909452736
1758447390882798600,7.236798583984375,-0.2762076173986308,-2.3736001861542464,2.808737570059299
1758447390892771600,7.246771484375,-0.3035533049638383,-3.8843589693695306,3.2001144304320213
1758447390902743600,7.25674365234375,-0.12129822898209094,-4.96276210835278,3.069943159164488
1758447390912715800,7.2667158203125,0.11191025944445282,-5.838073701286316,2.9261785390913486
1758447390922688500,7.2766884765625,0.18468791088555006,-6.523633706736565,2.8638737663477656
1758447390932660500,7.286660400390625,0.17071553616710006,-6.961310838252306,2.7395126426637173
1758447390942632700,7.2966328125,0.36822489817030724,-7.354803960126638,2.510529114988446
1758447390952604400,7.3066044921875,0.7136310846805572,-7.573172570285201,2.2278553520493207
1758447390962577700,7.31657763671875,0.5043775088697672,-7.862277681446075,2.0100316624224184
1758447390972549600,7.326549560546875,1.1208750840097665,-7.7974881061494346,1.634489500041306
1758447390982521600,7.336521484375,1.4563672678142785,3.9303479826062917,0.7184685878396034
1758447390992494600,7.34649462890625,1.9656326948560774,22.652133442890644,4.484806450201571
1758447391002466600,7.356466552734375,-0.05494271954298019,26.75473593473434,8.192403954303265
1758447391012438500,7.3664384765625,0.21370178739130496,28.695423427295683,2.521020113864541
1758447391022410800,7.37641064453125,4.285759503367543,20.75684225836992,-5.164121716043352
1758447391032383700,7.3863837890625,5.036309575122594,12.268999898231028,-9.689235918974877
1758447391042355500,7.39635546875,1.7787655767679214,7.094220010051131,-8.783816188025474
1758447391052327700,7.40632763671875,-1.7439865243315695,2.1847043387174607,-6.226463947063684
1758447391062300700,7.41630078125,-4.81139899597466,-0.01648527085483074,-3.4621675762772557
1758447391072272600,7.426272705078125,-7.477637728112936,-1.2970803766995667,-0.2731320276118815
1758447391082244600,7.43624462890625,-8.508201257556676,-3.1375632817119357,0.9777814950659871
1758447391092216600,7.446216552734375,-7.527246685412526,-5.203838809403777,1.5137774003840982
1758447391102189600,7.456189453125,-4.8565410369932644,-5.890685932055115,1.5888446240670977
1758447391112161500,7.46616162109375,-2.4780606775820253,-5.1254029860705135,2.028896083498746
1758447391122133500,7.476133544921875,-0.8038156518660485,-3.074303984722495,2.79069191801995
1758447391132106500,7.4861064453125,1.1155864760823546,-0.48839083518683907,3.245229875704646
1758447391142078700,7.49607861328125,3.2107559436947106,1.3327438107550142,3.2765555728167293
1758447391152050400,7.506050537109375,4.277033760598302,1.8479975184261799,2.8204443744659424
1758447391162022700,7.516022705078125,4.041361548939347,1.4078653949737547,2.2505858009040356
1758447391171995600,7.52599560546875,3.329778044438362,0.5930003796964883,1.7157871425464748
1758447391181967600,7.535967529296875,2.2455314401239157,-0.08596563431620598,1.1976612404398619
1758447391191939600,7.545939697265625,1.3189607845962046,-0.25098083994984627,0.929389366210252
1758447391201912600,7.55591259765625,0.6500467935204506,-0.09081073625981807,0.7668241840772331
1758447391211884500,7.565884521484375,-0.0026887276273220777,0.16229308719336985,0.5120953897707164
1758447391221856500,7.5758564453125,-0.6068330171506852,0.31804478991925716,0.34298400086462494
1758447391231828700,7.585828857421875,-0.8431354164719581,0.22986790929436682,0.19076310261338947
1758447391241801500,7.595801513671875,-0.7902899614691734,-0.03183949185311794,0.013923311412334442
1758447391251773700,7.605773681640625,-0.797924474935606,-0.18845628697574138,-0.1291214699536562
1758447391261745700,7.61574560546875,-0.8168962288439273,-0.23061025209426878,-0.2227516475483775
1758447391271718400,7.625718505859375,-0.7391641698658465,-0.18372516680061815,-0.3012209347598255
1758447391281690600,7.635690673828125,-0.742718720542267,-0.17369594021737575,-0.3354989058062434
1758447391291662600,7.64566259765625,-0.736886288061738,0.021433248651027678,-0.3734856682427227
1758447391301634600,7.655634521484375,-0.7558599416662007,0.3148796038866043,-0.21373481287807225
1758447391311607600,7.665607666015625,-0.8383826689869165,0.2057259862065315,-0.29929566578567024
1758447391321579800,7.675579833984375,-0.9002730157107114,-0.012806874603033066,-0.4816128654845059
1758447391331551500,7.685551513671875,-0.9238176304925233,-0.018000351592898367,-0.3407921899087727
1758447391341524500,7.6955244140625,-0.7205886487334966,-0.10442015941739081,-0.427977867539227
1758447391351496700,7.70549658203125,-0.39182197379171846,-0.09597615619897842,-0.4950184366330504
1758447391361468700,7.71546875,-0.09258826732635497,-0.010741174244880676,-0.5629987707950175
1758447391371440600,7.725440673828125,0.10959902336001395,0.020931144347786902,-0.5815418509624898
1758447391381413600,7.73541357421875,0.2557919665586203,0.009450549912452698,-0.5382851852990687
1758447391391385600,7.745385498046875,0.4313122726589441,-0.05854162081778049,-0.4802610124841332
1758447391401357600,7.755357666015625,0.6022913551330566,-0.16285890438258646,-0.3886838218964636
1758447391411329500,7.76532958984375,0.680702555481717,-0.16543547687232493,-0.2330757654249668
1758447391421302500,7.775302490234375,0.6922825917035341,-0.10004852020442485,-0.0771444683484733
1758447391431274800,7.785274658203125,0.7793173165559768,0.026129297512769697,-0.03847966051995754
1758447391441246500,7.79524658203125,0.7222749943852425,0.050256023031473154,-0.015260697495937347
1758447391451219500,7.805219482421875,0.26745442036688327,-0.01896539723277092,0.3074691814996302
1758447391461191700,7.815191650390625,0.20482947575822472,-0.06861117941141129,0.33168095495328304
1758447391471163400,7.825163330078125,0.32199674241542814,-0.0950362450003624,0.285920343644917
1758447391481135600,7.835135498046875,0.3865186066865921,-0.058385553473234174,0.2924284103646874
1758447391491108600,7.845108642578125,0.4340402363181114,-0.03723988959193229,0.2959777734093368
1758447391501080600,7.85508056640625,0.4730038078974932,-0.0016729016482830046,0.27076427556723354
1758447391511052500,7.865052490234375,0.4638854125488549,0.03182429428398609,0.22777868193015455
1758447391521025500,7.875025634765625,0.41460429896414275,0.05143967985808849,0.17558000039830804
1758447391530997500,7.88499755859375,0.3155413557309657,0.03356032429635525,0.1006334804855287
1758447391540969700,7.8949697265625,0.18868651553504168,0.007874678897857666,0.04493453574776649
1758447391550941400,7.90494140625,0.016420900381729005,-0.009787819042801857,0.05119330388158559
1758447391560914400,7.91491455078125,-0.16056341385655104,0.01635024629831314,0.1259048459947109
1758447391570886700,7.92488671875,-0.3254283973645419,0.0550818357527256,0.23940964462161063
1758447391580858400,7.9348583984375,-0.4120048570554703,0.004112111493945122,0.3274764890007674
1758447391590831600,7.94483154296875,-0.44691199285089966,-0.05989478899240493,0.41510903361588714
1758447391600803600,7.954803466796875,-0.4045463577430695,-0.1568143635213375,0.4548772726416588
1758447391610775600,7.964775634765625,-0.3608557576417923,-0.17933073123395443,0.5176924791254103
1758447391620747500,7.97474755859375,-0.4264332684457302,-0.17248305729627608,0.5888290853612125
1758447391630720500,7.984720458984375,-0.37342524329237636,0.12159984227716922,0.6255300457708537
1758447391640692500,7.9946923828125,-0.25017003502361473,0.16144903758466242,0.4773163373343646
1758447391650664400,8.00466455078125,-0.6304056159179657,0.5350146391957998,1.055116809811443
1758447391660637700,8.0146376953125,-0.9570797024946659,1.0548340473473072,1.5659703828275202
1758447391670609400,8.024609375,-0.9288980755619705,0.9052660016924142,1.5833507028259337
1758447391680581600,8.03458154296875,-0.539725301104784,-0.004925765964388847,1.0959811735108493
1758447391690553600,8.0445537109375,0.13590024337358772,-1.4840344424188137,0.26355916649401184
1758447391700526600,8.054526611328125,0.6513007391043008,-2.5528788949400183,-0.297321150842309
1758447391710498600,8.06449853515625,0.8641338539022951,-2.6222569670706988,-0.6702892249517143
1758447391720470800,8.074470703125,0.7938637283027171,-1.6658143203705549,-0.7383996152341366
1758447391730443500,8.084443603515625,0.49041854162216186,-0.5146785381317138,-0.5647820009499788
1758447391740415500,8.09441552734375,0.19521862071752547,0.07915946143269538,-0.5761145652167499
1758447391750387700,8.1043876953125,-0.08892565316557884,0.49391924321949476,-0.48961438563242554
1758447391760359700,8.114359619140625,-0.41772213872373104,0.9997592258572577,-0.2744195832043886
1758447391770333000,8.1243330078125,-0.6444966851126402,1.305084234935045,-0.10029299648478626
1758447391780305000,8.134304931640624,-0.6401034185897558,1.318725222274661,0.040972354118525976
1758447391790276900,8.14427685546875,-0.4017676137447357,0.9910445890039205,0.31103271920010445
1758447391800249900,8.154249755859375,-0.08428506081812083,0.3809264857679605,0.544272296884656
1758447391810221800,8.164221923828125,0.14889124237187207,-0.11154372768700122,0.7806697540782391
1758447391820193800,8.17419384765625,0.2742202612400055,-0.45007191818654535,0.966167191248387
1758447391830165800,8.184165771484375,0.35254261426143346,-0.6745645641833543,1.0665146943993866
1758447391840139000,8.194138916015625,0.3982938001543283,-0.7893436205297708,1.0798017537347973
1758447391850110700,8.20411083984375,0.34705819150097666,-0.7804518735438585,1.0122158257178961
1758447391860083000,8.2140830078125,0.20952895868606863,-0.6387672746151686,0.8430882163293659
1758447391870055000,8.224054931640625,0.030831264658644792,-0.44653380718827246,0.5921539920002221
1758447391880027600,8.234027587890624,-0.15050035806894302,-0.28278876762092114,0.34798896954506636
1758447391890000000,8.243999755859376,-0.3199462396264076,-0.08752923037111758,0.17901216680407522
1758447391899971800,8.253971923828125,-0.513600752832368,0.07941372845470905,0.03310176687389612
1758447391909944800,8.26394482421875,-0.5676881707202642,0.13086743683815003,-0.19742986702620982
1758447391919916800,8.273916748046876,-0.5190075072467327,0.12629647566080093,-0.37741409373283386
1758447391929889000,8.283888916015625,-0.41024193903617556,0.1298924543261528,-0.504247160488367
1758447391939860700,8.29386083984375,-0.2850415149837732,0.14012509452700614,-0.5774691946960986
1758447391949834000,8.303833984375,-0.18222360313124952,0.13050094161331652,-0.6255402749039233
1758447391959806000,8.313805908203125,-0.07418927180469036,0.05508358931839466,-0.6182023332312703
1758447391969778000,8.32377783203125,0.00008292904309928417,-0.043240006789565084,-0.5390940174639225
1758447391979751000,8.3337509765625,0.057111222688481206,-0.08451894263923168,-0.30515535159930585
1758447391989723000,8.343722900390626,0.059061845299601554,-0.06991115609407425,-0.0008412731297314166
1758447391999694800,8.35369482421875,0.12811791893430052,-0.06526888324618339,0.29400369685739275
1758447392009666800,8.363666748046874,0.2837831124205142,-0.08960369855761527,0.5212945952706038
1758447392019640000,8.37364013671875,0.4698405215609818,-0.12762334035038947,0.6939505249157547
1758447392029611800,8.38361181640625,0.6133142689287662,-0.14970599282085895,0.7975128984600305
1758447392039584000,8.393583984375,0.7436983792293816,-0.1720855824112892,0.7637668423332273
1758447392049557000,8.403556884765624,0.7307973235368728,-0.1462140590518713,0.6996683180406689
1758447392059528700,8.41352880859375,0.5879091940373182,-0.09379647407233714,0.595380845092237
1758447392069501000,8.4235009765625,0.3073802611071616,-0.07353986798524856,0.44691476932987567
1758447392079473000,8.433472900390624,0.048808235375955696,-0.06067454119324684,0.34200521896034475
1758447392089446000,8.44344580078125,-0.14227372392825782,-0.05942483339309692,0.2504720136448741
1758447392099417900,8.45341796875,-0.28879231888465584,-0.0921428616464138,0.19069003737717866
1758447392109389800,8.463389892578125,-0.35678339363634587,-0.1107037697315216,0.17460720984339714
1758447392119362800,8.47336279296875,-0.38749132417626675,-0.08701718919575215,0.19527371190562842
1758447392129335000,8.4833349609375,-0.3824083218235522,-0.0566156211912632,0.2257571129746735
1758447392139306800,8.493306640625,-0.33214930311739443,-0.06404664797484874,0.24746333334818482
1758447392149279000,8.503279052734374,-0.19896065679006278,-0.08782382940351963,0.2799294326670468
1758447392159252000,8.513251953125,-0.024466332736611366,-0.13098843286931514,0.30706644591763615
1758447392169223700,8.5232236328125,0.09844641877003013,-0.13162497720718383,0.3599488719299435
1758447392179196000,8.53319580078125,0.17952011632621287,-0.11514730513691901,0.39388694349750875
1758447392189169000,8.5431689453125,0.26220015310049055,-0.10810206280052662,0.3706887310005724
1758447392199140900,8.553140869140625,0.2778442969560623,-0.08479366792738437,0.32934389030784367
1758447392209112800,8.56311279296875,0.24584281947426498,-0.02790332144796848,0.33854251128584145
1758447392219085000,8.5730849609375,0.16854162619411944,0.02822714657485485,0.36065380532890556
1758447392229057800,8.583057861328125,0.026287118422985076,0.08446282853782176,0.34706425591558215
1758447392239029800,8.59302978515625,-0.06965279741883278,0.050129766303300856,0.27064211049228903
1758447392249002000,8.603001953125,-0.10374036045968532,-0.06569792231321335,0.14209230294674635
1758447392258974700,8.612974609375,-0.09039156099967657,-0.1323106213837862,-0.009969459220021962
1758447392268947000,8.622947021484375,-0.13021620638780296,-0.10626666406691074,-0.10423954215347767
1758447392278919000,8.6329189453125,-0.2045978589594364,-0.06482990730702877,-0.13242489541321992
1758447392288891000,8.642890869140626,-0.2492091541022062,-0.01655365991592407,-0.13646364941000938
1758447392298863900,8.65286376953125,-0.27432664422392844,-0.033334698846936225,-0.09290990049615502
1758447392308836000,8.662836181640625,-0.2570913587193936,-0.09707856448292732,-0.0034250060126185416
1758447392318807800,8.672807861328126,-0.18636070293597876,-0.1273643971532583,0.06791925162449479
1758447392328780800,8.68278076171875,-0.050175359010696405,-0.12852058145105838,0.14191811542361973
1758447392338753000,8.6927529296875,0.09415135192461312,-0.10896890876293182,0.18684402947351336
1758447392348724700,8.702724853515624,0.18167532159872352,-0.09596914193630218,0.23405571637302636
1758447392358697000,8.712697021484376,0.268007451139763,-0.09402852926254272,0.28121201982349153
1758447392368670000,8.722669921875,0.3220416775356978,-0.06340542746186256,0.33379327093213795
1758447392378642000,8.732641845703125,0.3933627004276961,-0.024748656809329986,0.35839448209479446
1758447392388614000,8.74261376953125,0.45868068351261315,0.04343932875394821,0.33792759425789115
1758447392398587000,8.7525869140625,0.48549862087666984,0.016861118429899215,0.28372341812253
1758447392408558800,8.762558837890625,0.4138683859050274,-0.027407646885514256,0.2150765828758478
1758447392418530800,8.77253076171875,0.25611235761940476,-0.07172901917099953,0.16476137700304389
1758447392428502800,8.782502685546875,0.10339373897910117,-0.13213409577310084,0.14240224567875265
1758447392438475800,8.792475830078125,-0.05407404694966972,-0.13444880245625973,0.15405439728870987
1758447392448448000,8.802447998046874,-0.14124321183674038,-0.08556289873421191,0.19125497778356074
1758447392458419700,8.812419677734376,-0.1814092180084437,-0.04461246418654918,0.1995022893860936
1758447392468393000,8.82239306640625,-0.20691190805546938,0.005083586874604225,0.20683350905701517
1758447392478365000,8.832364990234375,-0.22453348946385085,0.04555062181949615,0.22199191522225736
1758447392488337000,8.8423369140625,-0.22418518748283384,-0.09328267933130263,0.20787512706443667
1758447392498308900,8.852308837890625,-0.16186236762590706,-0.24417174445688722,0.17679186040610073
1758447392508281900,8.86228173828125,-0.14131108944118023,-0.1869692632883787,0.2187112861163914
1758447392518253800,8.87225390625,-0.13756364654116332,-0.09354629870355129,0.2576264154441655
1758447392528225800,8.882225830078125,-0.10609013845622539,-0.0005991349369287491,0.3054207245372236
1758447392538199000,8.892198974609375,-0.08788337757103144,-0.03135667677223682,0.40259909613281486
1758447392548170800,8.902170654296874,-0.028996304316446182,-0.15354454807043075,0.4279495182275772
1758447392558143000,8.91214306640625,-0.006416881304979324,-0.17012041981816292,0.4769271918863058
1758447392568114700,8.92211474609375,-0.017256912814453244,-0.049829906573891636,0.5693646525651216
1758447392578087700,8.932087646484375,-0.01631225237548351,-0.0974187562227249,0.5713637174278497
1758447392588060000,8.942059814453126,0.06433014109134674,-0.17933774549663065,0.5052170284338295
1758447392598032000,8.952031982421875,0.14160627299547193,-0.14626958863139153,0.3760901516526937
1758447392608003800,8.96200390625,0.12957264778725802,-0.08684300167262554,0.2520142746508121
1758447392617976800,8.971976806640624,0.07049918511509895,-0.13920447255074977,0.1656917897209525
1758447392627948800,8.98194873046875,-0.025664018088579175,-0.1430330909281969,0.07695888264849782
1758447392637920800,8.991920654296875,-0.09359949019551277,-0.09003039953708648,0.04650660737007856
1758447392647894000,9.00189404296875,-0.15109898154921828,-0.04497895941138267,0.04729351996406912
1758447392657865700,9.01186572265625,-0.1541273894596845,-0.03629588674008846,0.053243660540133714
1758447392667838000,9.021837890625,-0.15005729047656058,-0.06192717160284519,0.07363426827043294
1758447392677810000,9.031809814453124,-0.14405015901625157,-0.07530921574532985,0.08784004988595842
1758447392687782700,9.04178271484375,-0.14029109874367712,-0.11250526619553565,0.09069514705613255
1758447392697755000,9.0517548828125,-0.09180033181905746,-0.11689677915275096,0.11507672411873936
1758447392707726800,9.061726806640625,-0.003067570877075195,-0.09413900389969349,0.14448270521461962
1758447392717699800,9.071699951171874,0.09079897275678812,-0.05187339510023593,0.18438947592824698
1758447392727671800,9.081671875,0.13953531194031238,-0.006000701719522476,0.23243659073859452
1758447392737644000,9.09164404296875,0.14453238957524298,0.03407937973439693,0.2940935670979321
1758447392747615700,9.10161572265625,0.11001929459869861,0.04813713118135929,0.3111760731935501
1758447392757589000,9.111589111328126,0.09251469063349067,-0.0003261632144451141,0.3024696196466684
1758447392767561200,9.121561279296875,0.10709383560605347,-0.08628945944309234,0.3044007338397205
1758447392777533000,9.131532958984375,0.16827632632143794,-0.14448621234595774,0.22886676942780612
1758447392787506200,9.141506103515624,0.1883248426157981,-0.1444265911132097,0.16718538927957416
1758447392797478100,9.15147802734375,0.11658230637609958,-0.11176116982996463,0.1491338920213282
1758447392807450000,9.1614501953125,-0.029143676897883414,-0.07849895169734955,0.16439166690781712
1758447392817422000,9.171422119140624,-0.18789638807065784,-0.06952946330010891,0.23362273178324103
1758447392827395000,9.18139501953125,-0.2571826171994209,-0.08114508229196071,0.3294960121296346
1758447392837367000,9.191366943359375,-0.2474626757610589,-0.14465923082530496,0.3794720491759479
1758447392847339300,9.20133935546875,-0.16011398958861828,-0.17891922782361505,0.3673744918860495
1758447392857312000,9.21131201171875,-0.0722567693721503,-0.1772264524310827,0.3027906682945788
1758447392867284000,9.221283935546875,-0.04775770340971648,-0.15490882216095925,0.2431109833575785
1758447392877256200,9.231256103515625,-0.08555931853763758,-0.11086392872929572,0.19541414328962564
1758447392887229000,9.24122900390625,-0.11675116013698279,-0.07639876454770565,0.18829671249985694
1758447392897201200,9.251201171875,-0.10347206491231918,-0.08974398381114006,0.1846354135133326
1758447392907173000,9.261173095703125,-0.028241686556860802,-0.08748422218561172,0.17869506367892027
1758447392917145000,9.27114501953125,0.04716689790971577,-0.053743865147233005,0.17246844424903393
1758447392927118000,9.2811181640625,0.11819565985687076,-0.05923661734461784,0.17435455025658012
1758447392937090000,9.291090087890625,0.1554728857845068,-0.045125674405694004,0.19101386250406502
1758447392947062000,9.30106201171875,0.15854754398949444,-0.018608254358172416,0.20509148769527671
1758447392957034000,9.311033935546876,0.15499533140063285,0.004144260197877884,0.22856530226320027
1758447392967007200,9.32100732421875,0.12866495835781097,-0.049909986072778696,0.2771329338163137
1758447392976979000,9.33097900390625,0.09415595503449439,-0.10659750345647334,0.30052988375574347
1758447392986951200,9.340951171875,0.05937865616381168,-0.11042729087769984,0.29752734093889593
1758447392996924200,9.350924072265625,0.038318259413167834,-0.132118898203969,0.25295959267690776
1758447393006896000,9.360896240234375,-0.03195573864392936,-0.14642039527893067,0.22833982294425367
1758447393016868000,9.3708681640625,-0.13964987823069094,-0.11706219884753226,0.24571634355038402
1758447393026840000,9.380840087890626,-0.20147709659039972,-0.05318973839581012,0.28696897591501475
1758447393036813000,9.39081298828125,-0.18744798671603202,-0.04501519976854324,0.3444556808523834
1758447393046785000,9.400784912109375,-0.06714987468719483,-0.08489303664863108,0.3471098486229777
1758447393056757000,9.410757080078126,0.09859949043989182,-0.1291997958868742,0.3087457773067057
1758447393066730000,9.42072998046875,0.21307276877276599,-0.12115794372856616,0.23019567994400858
1758447393076702200,9.4307021484375,0.23867672723717986,-0.10074000959992409,0.1502646496169269
1758447393086674000,9.440673828125,0.20587452783174812,-0.025514965006709096,0.11899594338908791
1758447393096646100,9.450646240234375,0.1426847158819437,0.020955694267153737,0.09296192294433712
1758447393106619100,9.460619140625,0.09123743723928927,0.02105973916351795,0.06617036213055252
1758447393116591000,9.470591064453124,0.09303250396251678,-0.020593290695548057,0.03554126898050308
1758447393126563000,9.48056298828125,0.1260107175219804,-0.05798223336935043,0.0037216508716344833
1758447393136536000,9.4905361328125,0.0923136151034385,-0.03779927704036236,0.013235475278645752
1758447393146508000,9.500508056640625,0.02632927706427872,-0.00986088427901268,0.06644245707020163
1758447393156480000,9.51047998046875,-0.05130355932302773,-0.06131167005300522,0.13058277467787266
1758447393166452200,9.5204521484375,-0.07036299151480198,-0.1255786827802658,0.17842369939163327
1758447393176425000,9.530425048828125,-0.04773782966546714,-0.132128250554204,0.19837986122742293
1758447393186397200,9.540397216796874,-0.039406127715110775,-0.1445534323632717,0.22705562835261225
1758447393196369200,9.550369140625,-0.04669796522371471,-0.09569850830137729,0.27332433531358835
1758447393206342000,9.560341796875,-0.06967442472875118,-0.06067337214946746,0.3259758751794696
1758447393216314000,9.570314208984374,-0.08462298753559588,-0.071498717546463,0.34857363756522536
1758447393226286000,9.5802861328125,-0.07608012705259025,-0.12815525527000426,0.33101386934667826
1758447393236258000,9.590258056640625,-0.06486432103328406,-0.1323883627951145,0.2746897784478962
1758447393246231000,9.60023095703125,-0.03816453015618026,-0.13083236552476882,0.19891133775562048
1758447393256203300,9.610203369140624,-0.05383855769336223,-0.12985679849088191,0.15503390984535217
1758447393266175000,9.620175048828125,-0.07568389427661895,-0.09818974059522151,0.17228110498338936
1758447393276148000,9.63014794921875,-0.09509696221165359,-0.06725859575867653,0.2474019585497677
1758447393286120200,9.6401201171875,-0.09593991584181785,-0.07954816848933696,0.32601080036237834
1758447393296092200,9.650092041015625,-0.04512691651470959,-0.09842471839487552,0.3770753632977605
1758447393306064100,9.660064208984375,-0.012046338559314609,-0.08277648288607597,0.42601372785940766
1758447393316037000,9.670037109375,0.009472834809496998,-0.1007657285630703,0.4238564036950469
1758447393326009000,9.680009033203126,0.03636785599775612,-0.1269511401772499,0.40122590808346864
1758447393335981000,9.68998095703125,0.04700615439005196,-0.12721183694005012,0.3710287766098976
1758447393345954300,9.699954345703125,0.02602817522585392,-0.09816635971963406,0.33610826987624165
1758447393355926000,9.709926025390626,-0.003234744137525558,-0.05661854380071163,0.3092275694742799
1758447393365898200,9.719898193359375,-0.008921557602286339,-0.042667759859561914,0.2684827405013144
1758447393375870000,9.729869873046875,0.01937565853409469,-0.05938917755782604,0.21112156163975596
1758447393385843000,9.739843017578124,0.048026145087555046,-0.0562754294514656,0.1460717279717326
1758447393395815200,9.749815185546876,0.0630471886087209,-0.054803603333234786,0.1096202122785151
1758447393405787000,9.759786865234375,0.06030979953408241,-0.047367315852642054,0.08523381291031837
1758447393415760100,9.769760009765625,0.04115034103393554,-0.0806137518942356,0.08257292313799261
1758447393425732000,9.779732177734376,0.01310205815732479,-0.09479776006937027,0.08716901875659823
1758447393435704000,9.7897041015625,-0.019755013240501284,-0.09585223755836486,0.13254501466155053
1758447393445676000,9.799676025390625,-0.0632639000993222,-0.05230301868915557,0.1878515990808606
1758447393455649000,9.80964892578125,-0.07884316202513873,-0.033088030609488485,0.21826997208967805
1758447393465621000,9.81962109375,-0.06755319479107856,-0.06900923881828784,0.2594173905141651
1758447393475593200,9.82959326171875,-0.04435169435851276,-0.12192074479460716,0.24974472228363154
1758447393485566200,9.839566162109374,-0.003988192853331566,-0.13065759347975253,0.23879165885373949
1758447393495538000,9.849537841796876,-0.005012932791188359,-0.10555939258038997,0.23478344612568616
1758447393505510100,9.85951025390625,-0.03314706732034683,-0.07797288199663162,0.21414719307124613
1758447393515482000,9.869482177734374,-0.05978372983336448,-0.05510463210642338,0.22926044492051004
1758447393525455000,9.879455078125,-0.0881294612865895,-0.06714169138073921,0.23263196718022225
1758447393535427000,9.889427001953125,-0.11585523421056568,-0.07835223670303822,0.2554718677587807
1758447393545399300,9.8993994140625,-0.08241108363978564,-0.11039280408620834,0.3115108581058681
1758447393555372000,9.9093720703125,-0.0673117141854018,-0.11789748062789439,0.342847807264328
1758447393565344000,9.919343994140625,-0.01670088636688888,-0.12691782242953775,0.35158743242844936
1758447393575316200,9.929316162109375,0.018984686455130576,-0.09437865787446498,0.3351012847907841
1758447393585288000,9.939287841796874,-0.034646877424046395,-0.07077274135947227,0.34507191305458546
1758447393595261200,9.94926123046875,-0.13025536935441195,-0.06061375091671943,0.37398587284982204
1758447393605233200,9.959233154296875,-0.15613405310697853,-0.11177753644287586,0.3679159052863717
1758447393615205000,9.969205078125,-0.13802965661771593,-0.11303367398381232,0.32079423475787044
1758447393625178000,9.97917822265625,-0.030661095723509786,-0.10294307260215282,0.2553781981259584
1758447393635150000,9.989150146484375,0.02646773568689823,-0.09552665886580944,0.1838097763441503
1758447393645122000,9.9991220703125,0.04223645577020943,-0.10063362661600113,0.10339154702201485
1758447393655094300,10.00909423828125,0.05661920138783753,-0.07831541182398796,0.03013312632665038
1758447393665067300,10.0190673828125,0.029929274317622184,-0.07572714889645576,0.002756312970817089
1758447393675039000,10.0290390625,0.009050810005143285,-0.053608840590715405,0.0026550445534288883
1758447393685011200,10.03901123046875,0.006122355337813496,-0.03857610663175583,0.027218261793255805
1758447393694984200,10.048984130859376,0.003554550676420331,-0.008214870637655258,0.06937339595556259
1758447393704956200,10.0589560546875,0.045846536026149985,0.008206687331199645,0.13268500765413044
1758447393714928000,10.06892822265625,0.07064421960897743,-0.03239537217020988,0.19041005139201878
1758447393724900000,10.078900146484376,0.09653327862508594,-0.07706044332683086,0.189959238884598
1758447393734873000,10.088873046875,0.12280571093559264,-0.09287819018363952,0.18640037735924123
1758447393744845000,10.098844970703125,0.11130816536545753,-0.062329907184839245,0.16060674154162405
1758447393754817000,10.108817138671874,0.10823409168235958,-0.042566637572646136,0.13743015635460615
1758447393764790000,10.1187900390625,0.0716775081794709,-0.03838905962705612,0.11053849616721272
1758447393774762000,10.128761962890625,0.04903554132580757,-0.053980011990666384,0.1328062959462404
1758447393784734000,10.13873388671875,0.011423895812034606,-0.06793254949748516,0.16292685505226254
1758447393794706200,10.1487060546875,-0.022265023300051687,-0.046557753035426135,0.1960829824618995
1758447393804679000,10.158678955078125,-0.03752798581831157,-0.0706844785541296,0.20459844348132608
1758447393814651100,10.168651123046875,-0.04141388734094798,-0.08458791622221469,0.20915902939513326
1758447393824623000,10.178623046875,-0.02143083749823272,-0.11163082144856452,0.19588395275846124
1758447393834595800,10.188595947265625,-0.04408522544205189,-0.13085808448791503,0.18157631820365785
1758447393844568000,10.198568115234375,-0.07148710017390549,-0.1436252116024494,0.21008885759115217
1758447393854540000,10.2085400390625,-0.08082534881830215,-0.17791268112957476,0.22639672605246305
1758447393864512000,10.218511962890625,-0.10048040881566703,-0.1448059458196163,0.25952026636674996
1758447393874485000,10.228485107421875,-0.08147760218195617,-0.070305123847723,0.3029685090795159
1758447393884457200,10.238457275390624,-0.041271921586990355,-0.06019172611236572,0.33860242477953434
1758447393894429000,10.248428955078126,0.03390102749280632,-0.08198387120366096,0.3385338895879686
1758447393904402000,10.25840185546875,0.1316254886638373,-0.05853168394565582,0.2612304312855005
1758447393914374100,10.2683740234375,0.15575820553191005,-0.0370434902369976,0.20302125729247927
1758447393924345900,10.278345947265626,0.14582177179865538,-0.008763152170181273,0.11454583211243152
1758447393934318000,10.288318115234375,0.0893109261561185,-0.016547814697027204,0.09770005738213658
1758447393944291000,10.298291015625,0.03294482274651527,-0.02507131289243698,0.1148420385800302
1758447393954263000,10.308262939453124,-0.00227970843501389,-0.05343406854569912,0.13220116965994239
1758447393964235000,10.318235107421875,0.023160437769815325,-0.10083879379928111,0.12911767056137322
1758447393974208000,10.3282080078125,0.08670154737532139,-0.10920680917203426,0.13783479163274168
1758447393984180000,10.338179931640624,0.11457330464124679,-0.08712707931101321,0.14295374208167194
1758447393994152200,10.348152099609376,0.07779350684173404,-0.10268062227368355,0.16873817167952657
1758447394004124000,10.3581240234375,0.02965630259513855,-0.0938946737498045,0.20277064353227614
1758447394014097000,10.368096923828125,-0.03210194218158722,-0.09136603205502032,0.24400837058871983
1758447394024069000,10.378069091796876,-0.05580547385215759,-0.06974865900874137,0.29745252213701606
1758447394034040800,10.388040771484375,-0.03391629812717437,-0.0555740031838417,0.3373183763183653
1758447394044014000,10.39801416015625,0.008550970724225044,-0.09193184924423695,0.3363393021531403
1758447394053986000,10.407986083984374,0.03804886788725853,-0.12410685666203498,0.30350568469613787
1758447394063958000,10.4179580078125,0.04250409373044967,-0.1588619437009096,0.23871523261666297
1758447394073930000,10.427929931640625,0.027519217501208185,-0.12311083136200904,0.16228899554014206
1758447394083903000,10.437903076171875,0.022643208962678907,-0.04117372190952301,0.12138868374451994
1758447394093875000,10.447875,0.028722821137309073,0.002864157259464264,0.0925648864507675
1758447394103847000,10.457846923828125,0.03498137007541954,-0.016157938596606254,0.07800064678639174
1758447394113820200,10.467820068359375,0.013742182691767812,-0.03166881146132946,0.1125892912171781
1758447394123792000,10.4777919921875,-0.014978884879872202,-0.048315410357713695,0.1270313658066094
1758447394133764000,10.48776416015625,0.005505684744194149,-0.11283961271643637,0.11324190990701317
1758447394143735800,10.49773583984375,0.009227335615828633,-0.13259528354406355,0.14978914105966687
1758447394153709000,10.507708984375,-0.03912833368703723,-0.06047463470697403,0.2374482814207673
1758447394163681000,10.517680908203126,-0.074722867224738,-0.03668459379673004,0.3043725306585431
1758447394173653000,10.527653076171875,-0.07760163753144443,-0.06883095964193343,0.3241958598949015
1758447394183626000,10.5376259765625,0.010425532424449921,-0.10862813250124453,0.288314106913656
1758447394193598000,10.547597900390626,0.10391747059226035,-0.1109521915346384,0.22794527066871523
1758447394203570000,10.55756982421875,0.13895305507294833,-0.08236497947573661,0.17665712811052797
1758447394213543000,10.56754296875,0.07509177360236645,-0.061412207818031306,0.14748480964004992
1758447394223515100,10.57751513671875,-0.0025087679505348204,-0.0584019200861454,0.14778116223812102
1758447394233486800,10.58748681640625,-0.06765482853464781,-0.049911155116558074,0.1945699475504458
1758447394243459000,10.597458984375,-0.07636303564719855,-0.05915712236762046,0.22285408500954507
1758447394253432000,10.60743212890625,-0.04224390842430293,-0.07399930219054221,0.24786475375592706
1758447394263403800,10.61740380859375,0.03361826502867043,-0.09371171839833259,0.24525398673564194
1758447394273376000,10.6273759765625,0.09569222469106316,-0.06660977646112441,0.23345965017601847
1758447394283349000,10.637348876953125,0.10789170798547565,-0.036575872725248336,0.25518194490149615
1758447394293321000,10.647321044921876,0.08453764733970165,-0.007321721190214157,0.271161604321748
1758447394303293000,10.65729296875,0.04644793598540127,-0.032059856605529784,0.2611898070141673
1758447394313266000,10.667265869140625,-0.0032727380603551864,-0.08173778748810291,0.2576315300107002
1758447394323238000,10.67723779296875,-0.004647533544898033,-0.10171031593680381,0.20898469574153422
1758447394333210000,10.687210205078125,0.009551672199368475,-0.11776128702759742,0.1613470385149121
1758447394343183000,10.69718310546875,-0.0016787468671798705,-0.10752221708595752,0.11780556456074118
1758447394353154800,10.70715478515625,-0.040498599126935,-0.08475801209211349,0.08053980987519026
1758447394363127000,10.717126953125,-0.07297989601492881,-0.08236907112896442,0.048400458292663096
1758447394373099000,10.72709912109375,-0.08512275375127792,-0.07339666012227535,0.03902034326791763
1758447394383072000,10.737072021484375,-0.09988434261865914,-0.057575406134128565,0.02006283708065748
1758447394393044000,10.7470439453125,-0.07653378910422325,-0.04613514370918274,0.036018969494849444
1758447394403016200,10.75701611328125,-0.04287409608662128,-0.05049158535301685,0.05994944178909063
1758447394412989000,10.766989013671875,-0.03831365630328655,-0.04776128360629082,0.1141338903106749
1758447394422961000,10.7769609375,-0.006723170775175094,-0.04311433458328247,0.20384280280843375
1758447394432933000,10.78693310546875,0.0233580792337656,-0.09265782543122768,0.27858035614565013
1758447394442905900,10.79690576171875,0.07769289601147174,-0.09358663071393966,0.3133963795915246
1758447394452878000,10.806878173828125,0.1264974781256169,-0.11021277134418486,0.3077778090573847
1758447394462850000,10.81685009765625,0.14836276151835917,-0.11002981599271297,0.3168288382582366
1758447394472822800,10.82682275390625,0.11495667793564497,-0.09287585209608078,0.28317338302433487
1758447394482795000,10.836794921875,0.06894026523530483,-0.06472235527932643,0.25502529303506016
1758447394492767000,10.84676708984375,0.016699278931692242,-0.04233692046999931,0.24479542931318282
1758447394502739000,10.856739013671875,-0.018931494963169097,-0.0620966829508543,0.23562281955927608
1758447394512712000,10.8667119140625,-0.05377250671982765,-0.08989829759001731,0.17496873663216828
1758447394522684200,10.87668408203125,-0.01681545265726745,-0.08969605301618576,0.13910378865525125
1758447394532655900,10.88665576171875,0.0007452654093503951,-0.07934475487172603,0.10822305883169174
1758447394542629000,10.896629150390625,0.021878581265732645,-0.05986205576658248,0.115792617303133
1758447394552601000,10.90660107421875,0.04700556986816227,-0.032009003201127054,0.13595847636684774
1758447394562573000,10.916572998046876,0.06843355782218277,-0.0181079036206007,0.15745061559826135
1758447394572546000,10.926546142578125,0.06772855135798454,-0.03686170392930507,0.1989021315358579
1758447394582518000,10.93651806640625,0.09137487294860183,-0.05683072524666786,0.22231194095686077
1758447394592490000,10.946489990234374,0.15562186580114065,-0.08839081563651562,0.2267953699812293
1758447394602463000,10.956462890625,0.15556524024307727,-0.09172843562662601,0.19852043874189257
1758447394612435200,10.966435302734375,0.12405424969196319,-0.06990589539706707,0.18108984986096618
1758447394622407000,10.976406982421874,0.05910860705077648,-0.09455752157270908,0.1632810753174126
1758447394632380000,10.9863798828125,-0.014969605594873427,-0.09093407037854194,0.15717530578821898
1758447394642352000,10.99635205078125,-0.10879172556512057,-0.06857727714180946,0.17220818587765097
1758447394652323800,11.00632373046875,-0.13727145866155624,-0.04737549915909767,0.20873422811180353
1758447394662297000,11.016297119140624,-0.13356741651184856,-0.09717910224795341,0.2291805115520954
1758447394672269000,11.02626904296875,-0.14766191977262497,-0.11010989549160002,0.255927356441319
1758447394682241000,11.036240966796875,-0.17592596429176627,-0.1221668285101652,0.2944346356205642
1758447394692213000,11.046212890625,-0.17733407752402125,-0.1257183835119009,0.3225600753866136
1758447394702186000,11.05618603515625,-0.11481588122546672,-0.14092355142831803,0.29191227753609417
1758447394712158000,11.066157958984375,-0.015943419063091276,-0.09955752181708812,0.2161965268164873
1758447394722130200,11.076130126953124,0.03423720064461231,-0.04916121353209019,0.14870280712768436
1758447394732103200,11.086103271484374,0.022788754913210866,-0.016448445975780487,0.11759952059462665
1758447394742075000,11.096074951171875,-0.02211597021818161,-0.028560324051976203,0.12066679921075701
1758447394752047000,11.106047119140625,-0.02100654767155647,-0.06066869597434997,0.12394129083678125
1758447394762019600,11.11601953125,0.023131211675330995,-0.07076105092167854,0.12171747730746865
1758447394771991800,11.12599169921875,0.05553725137002766,-0.077250412940979,0.12310323257744311
1758447394781963500,11.135963623046875,0.06253916602134704,-0.06763795046508311,0.1592892292022705
1758447394791936500,11.1459365234375,0.04134323325753212,-0.08688859438002108,0.1841001375928521
1758447394801908700,11.15590869140625,0.06333060865998268,-0.12463584897220134,0.17515286102741956
1758447394811880700,11.165880615234375,0.09838782045058905,-0.08631517840623855,0.15066870037317276
1758447394821852700,11.175852783203124,0.10587101581282914,-0.06544774694442748,0.13549889603108167
1758447394831825700,11.18582568359375,0.1091957032561302,-0.04038461735844612,0.15397724039927124
1758447394841797600,11.195797607421875,0.12634791358709335,-0.011602174988389015,0.16717808275595306
1758447394851769600,11.20576953125,0.1435077227026224,-0.007229366731643676,0.16794205286577343
1758447394861742800,11.215742919921874,0.11163089451380073,-0.026512743872404095,0.14429200494810937
1758447394871714600,11.225714599609375,0.038544542449712754,-0.04376783005595207,0.12516805615276097
1758447394881686800,11.235686767578125,-0.018130699974298475,-0.06347030939161777,0.139093997913599
1758447394891659800,11.24565966796875,-0.04458090000450611,-0.1167073940604925,0.1649221205227077
1758447394901631500,11.255631591796876,-0.01715096822194755,-0.14301263266205788,0.16837503745555876
1758447394911603700,11.265603759765625,0.015204656459763646,-0.11841536702215671,0.1698131074346602
1758447394921576700,11.27557666015625,0.025205825992301104,-0.061355509194731706,0.20025120805725455
1758447394931548700,11.285548583984376,0.017658917744085192,-0.05962240179181098,0.2251091704599559
1758447394941520600,11.295520751953125,0.003897591960430145,-0.10712766481041908,0.22363412947133182
1758447394951493600,11.30549365234375,-0.011009469792246818,-0.12210486918985843,0.2146384837195277
1758447394961465600,11.315465576171874,-0.043756139618158336,-0.12523849104046822,0.22378478998839854
1758447394971437600,11.3254375,-0.04580781145095825,-0.10691665240824222,0.2238460186563432
1758447394981409500,11.335409423828125,-0.015128595548868178,-0.10919511873424052,0.2437624330036342
1758447394991382500,11.345382568359375,-0.005927125026658177,-0.11850713695883751,0.2504990477822721
1758447395001354800,11.355354736328126,0.006515738569572567,-0.10118190814852714,0.23351357232034206
1758447395011326500,11.365326416015625,0.02492043317966163,-0.07930968355834483,0.22718203121125696
1758447395021299700,11.3752998046875,0.042127588568255304,-0.056841246640682214,0.21731617849618196
1758447395031271700,11.385271728515624,0.06373802041709423,-0.05199672921895981,0.2267158750042319
1758447395041243600,11.39524365234375,0.07918876059241592,-0.05741232452690601,0.21260259397774933
1758447395051216600,11.405216552734375,0.08164894016087054,-0.05446399611532688,0.1978698658786714
1758447395061188600,11.415188720703124,0.09874211378097533,-0.03288753960132599,0.15275193638801574
1758447395071160600,11.42516064453125,0.14551548232845962,-0.008131868529319762,0.09879033683687448
1758447395081133600,11.435133544921875,0.15661847562305628,-0.03002572042942047,0.04448343097940087
1758447395091105800,11.445105712890625,0.07825579059123992,-0.010427870512008667,0.03516396010071039
1758447395101077500,11.455077392578126,-0.03372925112247467,-0.007246902388334274,0.06740867175385355
1758447395111049700,11.4650498046875,-0.10463526347279548,-0.009867314019799232,0.1263030515320599
1758447395121022700,11.475022705078125,-0.1604659448314458,-0.07387129189670086,0.21731398653909562
1758447395130994400,11.484994384765624,-0.19295016432888804,-0.15112228935956953,0.307403276656568
1758447395140966700,11.494966552734375,-0.1794014583826065,-0.19031740467250347,0.4040397964604199
1758447395150939600,11.504939697265625,-0.08072130392193794,-0.1958627638399601,0.4411151431404054
1758447395160911600,11.51491162109375,0.030493337941169738,-0.16643617834746838,0.43205534611120816
1758447395170883600,11.524883544921876,0.11415003772787749,-0.11349077010154723,0.37330300515219567
1758447395180856800,11.53485693359375,0.15959493415057657,-0.08360767301321029,0.3159207835026085
1758447395190828500,11.54482861328125,0.16011114004440605,-0.07003215212523937,0.2744901642225683
1758447395200800800,11.55480078125,0.15855857684016228,-0.004818213936686516,0.24519524228572845
1758447395210772500,11.5647724609375,0.17253442215733228,0.14185235671103,0.22514234207719563
1758447395220745500,11.574745361328125,0.19515549235343932,0.15033669193983076,0.17261384406909347
1758447395230717700,11.5847177734375,0.25968963158428665,0.014058335968852042,0.1052051723152399
1758447395240689400,11.594689453125,0.2863965097893029,-0.051390580019354815,0.0782806327715516
1758447395250662700,11.60466259765625,0.3082692458361387,-0.007574234646558761,0.11667656053081155
1758447395260634600,11.614634521484374,0.34204350514411924,0.030024551385641095,0.15694441964179276
1758447395270606600,11.624606689453126,0.37814649966061115,0.02012567318379879,0.18406988858506082
1758447395280579600,11.63457958984375,0.3936404213905334,0.023482582396268843,0.2278282201603055
1758447395290551600,11.644551513671875,0.3055453738301992,0.14656535670757292,0.3998071273267269
1758447395300523500,11.6545234375,0.1927034230262041,0.19994623376131057,0.5528736826218664
1758447395310496500,11.66449658203125,0.1258060617953539,0.12155132696032524,0.672644117514789
1758447395320468700,11.67446875,0.14743914386741816,-0.03431669562160969,0.6909665406689047
1758447395330440400,11.6844404296875,0.25059037932753564,-0.1804471680432558,0.6897634484894574
1758447395340412700,11.69441259765625,0.40053851034119725,-0.2702332374304533,0.6239065362222492
1758447395350385700,11.7043857421875,0.6132797821372747,-0.3069681001096964,0.4748742048792541
1758447395360357600,11.714357666015625,0.8361802635718136,-0.20439970603883265,0.25166473056077954
1758447395370329600,11.72432958984375,0.9781746591020375,-0.03734568805396556,-0.016949965757131577
1758447395380302600,11.734302490234375,0.984434230953455,0.0848486129850149,-0.26283742809072136
1758447395390274600,11.744274658203125,0.8590105195391923,0.20165946741998195,-0.4250456134796142
1758447395400246500,11.75424658203125,0.6431255428899079,0.25914251909554004,-0.5141558294318616
1758447395410219800,11.7642197265625,0.37571247744672,0.2343172899186611,-0.438706328433007
1758447395420191500,11.77419140625,0.10498999519459902,0.1274438921302557,-0.3145285984918475
1758447395430163700,11.784163818359374,-0.06552775337807834,-0.03278524827063083,-0.20252719016522167
1758447395440135700,11.7941357421875,-0.24399280769340692,-0.25834347767233845,0.013234013973921537
1758447395450108400,11.8041083984375,-0.3331003202319145,-0.8626549404561519,0.0007214461423456669
1758447395460080600,11.81408056640625,-0.26708960564248263,-1.520220439043641,-0.010593436337262391
1758447395470052600,11.824052490234376,-0.4561947849810123,-1.4537532859236002,0.527923511891067
1758447395480025600,11.834025634765625,-0.6615514264184981,-0.985090649035573,0.9259560307607054
1758447395489997600,11.84399755859375,-0.601997925144434,-0.604455839690566,0.997504871059209
1758447395499969800,11.8539697265625,-0.4491624751914292,-0.18733634303510188,1.127341211283952
1758447395509942500,11.863942626953126,-0.13697569058537482,0.11826631394028662,1.2326416606672108
1758447395519914800,11.873914794921875,0.16355740804076194,0.03459843517243862,1.2760267750158905
1758447395529886700,11.88388671875,0.3643962067276239,-0.21040274584591387,1.360994776596874
1758447395539858700,11.893858642578126,0.5408640228111297,-0.48117257437109945,1.3795235359780489
1758447395549831700,11.903831787109375,0.6508569408595561,-0.5276449872106314,1.327393681898713
1758447395559803600,11.9138037109375,0.6670019469093531,-0.46546822476089,1.210922142420709
1758447395569775600,11.923775634765626,0.5741605816047638,-0.48951779339015483,1.027415002284944
1758447395579748600,11.93374853515625,0.49903256764523685,-0.6316127266854047,0.8586948046535253
1758447395589720800,11.943720947265625,0.34810441261827946,-0.4331897569686174,0.8235710304327308
1758447395599692500,11.953692626953124,0.08802724302113056,-0.0008522329151630402,0.8256519283600151
1758447395609665500,11.96366552734375,-0.2299110908489674,0.07207213352024555,0.7255668755374849
1758447395619637800,11.9736376953125,-0.43611170882992445,-0.1202460895806551,0.5565789668805897
1758447395629609500,11.983609375,-0.5134101986963302,-0.32517420340776443,0.36442426377832887
1758447395639581700,11.993581787109376,-0.5781903485774994,-0.29879122339487074,0.19659063972309232
1758447395649554700,12.0035546875,-0.7308066758871078,-0.06438274806141853,0.05667407338023185
1758447395659526700,12.013526611328125,-0.9532826482992619,0.1432984638661146,0.009231208073347806
1758447395669498600,12.02349853515625,-1.0642780944537371,0.20945932751595972,-0.050354368839412925
1758447395679471600,12.0334716796875,-1.030332058775425,0.12609540013074874,-0.2689667246259749
1758447395689443600,12.043443603515625,-0.9947200626462698,0.0694990681618452,-0.5873061135776341
1758447395699415800,12.053415771484374,-1.02284374884665,0.11101122824549674,-0.8284450662098825
1758447395709387500,12.063387451171875,-1.0771405717015266,0.30113398712873457,-1.0009856989122927
1758447395719360500,12.073360595703125,-1.232088556829095,0.4792752163171768,-1.0335076200716198
1758447395729332700,12.083332763671875,-1.4190870462119578,0.5827841061085463,-1.1774473044507205
1758447395739304400,12.093304443359376,-1.6452911723017691,0.6497773289293051,-1.2923420961312948
1758447395749277700,12.103277587890625,-1.6625865904957056,0.6838257290035485,-1.4780752417534588
1758447395759250200,12.113250244140625,-1.5374275944322346,0.7866361151367426,-1.6613763379231095
1758447395769222100,12.12322216796875,-1.3427479028970002,0.9061386928737163,-1.8471499616861342
1758447395779195400,12.1331953125,-1.0920359430164097,0.9048334554940461,-2.0690639893665908
1758447395789167000,12.1431669921875,-0.5442436553120613,0.6859627410322428,-2.3218058476395904
1758447395799139300,12.153139404296875,0.5057335265886038,0.45355683769285676,-2.4476371900066733
1758447395809111300,12.163111328125,1.55800261881873,0.3003951514601707,-2.0924698532648383
1758447395819084300,12.173084228515625,2.511307113623619,0.027606968849897384,-1.795011047517508
1758447395829056300,12.18305615234375,3.4171862787783143,0.024886019453406332,-1.0919526486471294
1758447395839028500,12.193028564453124,3.597086918854713,-0.058175125592947005,-0.6874027107074856
1758447395849001200,12.203001220703126,2.754769833028316,0.014989479339122772,-0.8936218872584402
1758447395858973200,12.21297314453125,1.5886265974022447,0.29965690031349657,-1.007203696644306
1758447395868945400,12.2229453125,0.47881446693763136,0.5717056627333164,-1.0802392683692277
1758447395878918100,12.232918212890626,-0.7763936841942369,0.8177607367187738,-0.73578212621212
1758447395888890400,12.242890380859375,-0.8147149392820894,0.8706471082538366,-0.49980508638769383
1758447395898862300,12.2528623046875,0.19708032293617725,0.44685938588082785,-1.315269236601889
1758447395908835000,12.2628349609375,0.40765740243569015,0.3085346187740564,-1.3477122473061085
