time,seconds_elapsed,z,y,x
1758447383659123000,0.013123046875,-0.1023937463760376,0.2041531354188919,-0.12914413213729858
1758447383669095000,0.023094970703125,-0.09672760963439941,0.127335324883461,0.030416496098041534
1758447383679067000,0.03306689453125,-0.10180944949388504,0.04264919459819794,0.15375813841819763
1758447383689038800,0.043038818359375,-0.10874911397695541,-0.052262939512729645,0.2345680296421051
1758447383699011800,0.05301171875,-0.10998242348432541,-0.13914990425109863,0.27369973063468933
1758447383708983800,0.06298388671875,-0.10601139068603516,-0.2050199955701828,0.27507445216178894
1758447383718955800,0.072955810546875,-0.10168135166168213,-0.2402336448431015,0.2423311471939087
1758447383728928800,0.0829287109375,-0.09638352692127228,-0.23582424223423004,0.18906259536743164
1758447383738901000,0.09290087890625,-0.0908428207039833,-0.2057049572467804,0.12273257970809937
1758447383748873200,0.102873291015625,-0.07786443829536438,-0.16581852734088898,0.049069274216890335
1758447383758845400,0.112845458984375,-0.06429057568311691,-0.11301709711551666,-0.021644042804837227
1758447383768818400,0.122818359375,-0.04734780639410019,-0.03862568736076355,-0.07884634286165237
1758447383778790100,0.1327900390625,-0.029768282547593117,0.02497619017958641,-0.12048087269067764
1758447383788762400,0.142762451171875,-0.008440889418125153,0.06148386746644974,-0.14260880649089813
1758447383798735400,0.1527353515625,0.010511230677366257,0.08023837953805923,-0.15117833018302917
1758447383808707300,0.162707275390625,0.026495257392525673,0.07694511860609055,-0.13643135130405426
1758447383818679300,0.17267919921875,0.034749191254377365,0.05222725123167038,-0.10781700909137726
1758447383828652300,0.18265234375,0.03675268962979317,0.015209046192467213,-0.07479647547006607
1758447383838624300,0.192624267578125,0.03387940302491188,-0.013757357373833656,-0.03790157660841942
1758447383848596200,0.20259619140625,0.022340459749102592,-0.0389319509267807,-0.010006560944020748
1758447383858568400,0.212568359375,0.014074007049202919,-0.05517110973596573,0.005422462243586779
1758447383868541200,0.222541259765625,0.01528494618833065,-0.03712419793009758,0.014671620912849903
1758447383878513400,0.232513427734375,0.02773256227374077,-0.00012490226072259247,0.011053716763854027
1758447383888485400,0.2424853515625,0.04344361275434494,0.019532687962055206,-0.0012205267557874322
1758447383898458400,0.252458251953125,0.057194847613573074,0.01979767344892025,-0.020289558917284012
1758447383908430300,0.262430419921875,0.06715400516986847,0.007889880798757076,-0.03334517404437065
1758447383918402600,0.272402587890625,0.06407938152551651,0.0048916940577328205,-0.042337335646152496
1758447383928374300,0.282374267578125,0.05224749073386192,0.007990015670657158,-0.04869483411312103
1758447383938347300,0.29234716796875,0.04225477948784828,0.01727060042321682,-0.053880807012319565
1758447383948319500,0.302319580078125,0.039375368505716324,0.037406761199235916,-0.05500945448875427
1758447383958291200,0.312291259765625,0.05104827135801315,0.03873461112380028,-0.05217185616493225
1758447383968264400,0.322264404296875,0.07044274359941483,0.008387093432247639,-0.04947700351476669
1758447383978236400,0.332236328125,0.08755408227443695,-0.03169028460979462,-0.0394027978181839
1758447383988208400,0.34220849609375,0.09505221247673035,-0.07617039978504181,-0.02064615674316883
1758447383998180400,0.352180419921875,0.08800415694713593,-0.10411041975021362,0.0060112872160971165
1758447384008153300,0.3621533203125,0.07005365192890167,-0.11904596537351608,0.03977058082818985
1758447384018125300,0.372125244140625,0.04833504185080528,-0.11735165864229202,0.07255249470472336
1758447384028097300,0.38209716796875,0.03466423600912094,-0.0918915718793869,0.08965665102005005
1758447384038070500,0.392070556640625,0.032399751245975494,-0.05194761976599693,0.08496815711259842
1758447384048042200,0.402042236328125,0.032293759286403656,-0.01022494025528431,0.05534634739160538
1758447384058014500,0.412014404296875,0.04056926444172859,0.02413702756166458,0.009393235668540001
1758447384067986200,0.421986083984375,0.043287020176649094,0.04586789011955261,-0.04129604250192642
1758447384077959400,0.43195947265625,0.03183729201555252,0.05872563272714615,-0.08115211129188538
1758447384087931400,0.441931396484375,0.008896555751562119,0.05516232177615166,-0.10377033799886703
1758447384097903400,0.4519033203125,-0.01979261264204979,0.04355253651738167,-0.10691127181053162
1758447384107876400,0.46187646484375,-0.052688512951135635,0.0401839055120945,-0.0883018970489502
1758447384117848300,0.471848388671875,-0.07943170517683029,0.03412121906876564,-0.06464850157499313
1758447384127820300,0.4818203125,-0.10209441184997559,0.02370985597372055,-0.04736165702342987
1758447384137792300,0.491792236328125,-0.1128983199596405,0.029163211584091187,-0.03401602432131767
1758447384147765500,0.501765625,-0.1139201745390892,0.039321839809417725,-0.030347518622875214
1758447384157737200,0.5117373046875,-0.11178618669509888,0.02659192867577076,-0.03915698826313019
1758447384167709400,0.52170947265625,-0.11029774695634842,0.00504029868170619,-0.05992831289768219
1758447384177682400,0.531682373046875,-0.10858320444822311,-0.03232864663004875,-0.08044157922267914
1758447384187654100,0.541654052734375,-0.09643146395683289,-0.08054836839437485,-0.09044121950864792
1758447384197626400,0.55162646484375,-0.07992279529571533,-0.12269902229309082,-0.0784521996974945
1758447384207598300,0.561598388671875,-0.06727677583694458,-0.1490459442138672,-0.04675738513469696
1758447384217571300,0.5715712890625,-0.05577298253774643,-0.13741564750671387,-0.006595850922167301
1758447384227543300,0.581543212890625,-0.0527564212679863,-0.091118723154068,0.03231266513466835
1758447384237515500,0.591515625,-0.042088862508535385,-0.04387717694044113,0.04543779045343399
1758447384247488300,0.60148828125,-0.03178935497999191,-0.023080019280314445,0.022050173953175545
1758447384257460500,0.61146044921875,-0.018493257462978363,-0.021980399265885353,-0.035107653588056564
1758447384267432200,0.62143212890625,-0.007164968643337488,0.002305764937773347,-0.09561600536108017
1758447384277404400,0.631404296875,-0.0005936186062172055,0.023637153208255768,-0.14849573373794556
1758447384287377400,0.64137744140625,-0.005706089083105326,0.03737586736679077,-0.18595601618289948
1758447384297349000,0.65134912109375,-0.01600426621735096,0.04352164268493652,-0.20842698216438293
1758447384307321300,0.6613212890625,-0.02293088287115097,0.06338616460561752,-0.2064000368118286
1758447384317294300,0.67129443359375,-0.023458188399672508,0.08339103311300278,-0.1817418336868286
1758447384327266300,0.681266357421875,-0.01769963465631008,0.0817132368683815,-0.14517530798912048
1758447384337238300,0.69123828125,-0.015597601421177387,0.07077670097351074,-0.09551507234573364
1758447384347211300,0.701211181640625,-0.018137991428375244,0.05686408281326294,-0.03706054762005806
1758447384357183200,0.711183349609375,-0.014427408576011658,0.02829155884683132,0.016981912776827812
1758447384367155200,0.7211552734375,-0.010399377904832363,-0.007229150738567114,0.0654304027557373
1758447384377127400,0.73112744140625,-0.009761816821992397,-0.04878351837396622,0.09784933179616928
1758447384387100200,0.74110009765625,-0.01612863689661026,-0.0947352945804596,0.11157312989234924
1758447384397072400,0.751072265625,-0.03316700831055641,-0.1430319845676422,0.09280557185411453
1758447384407044400,0.76104443359375,-0.04352084547281265,-0.13856667280197144,0.05658311769366264
1758447384417017300,0.771017333984375,-0.04591582715511322,-0.09178691357374191,0.0037004624027758837
1758447384426989300,0.7809892578125,-0.0365992896258831,-0.0238195788115263,-0.05380251258611679
1758447384436961500,0.79096142578125,-0.022608106955885887,0.030789071694016457,-0.10951903462409973
1758447384446933200,0.800933349609375,-0.0031012510880827904,0.05503502115607262,-0.15453684329986572
1758447384456906200,0.81090625,0.01685008592903614,0.06447593122720718,-0.17337578535079956
1758447384466878500,0.82087841796875,0.0381641648709774,0.05474180728197098,-0.16041870415210724
1758447384476850200,0.83085009765625,0.05862549692392349,0.03652685135602951,-0.11826352775096893
1758447384486823400,0.840823486328125,0.06636331230401993,0.016825851052999496,-0.06150490418076515
1758447384496795400,0.85079541015625,0.06934205442667007,0.000395745737478137,-0.0010327738709747791
1758447384506767400,0.860767333984375,0.07128163427114487,-0.020438162609934807,0.04813690111041069
1758447384516739300,0.8707392578125,0.0720430314540863,-0.03188469633460045,0.07311069220304489
1758447384526712300,0.88071240234375,0.06990797817707062,-0.020300477743148804,0.07481005787849426
1758447384536684300,0.890684326171875,0.07238791137933731,0.006970824208110571,0.060740310698747635
1758447384546656300,0.90065625,0.07251947373151779,0.02424435317516327,0.02779621072113514
1758447384556629500,0.91062939453125,0.07295143604278564,0.03726214915513992,-0.0127584058791399
1758447384566601200,0.920601318359375,0.0626593828201294,0.0394749715924263,-0.05860738828778267
1758447384576573400,0.930573486328125,0.052252285182476044,0.046719834208488464,-0.09852364659309387
1758447384586545200,0.940545166015625,0.043176498264074326,0.061946459114551544,-0.12937316298484802
1758447384596518400,0.950518310546875,0.03489593043923378,0.07847217470407486,-0.13906867802143097
1758447384606490400,0.960490478515625,0.031125161796808243,0.07039480656385422,-0.12893667817115784
1758447384616462300,0.97046240234375,0.03259123116731644,0.05903588980436325,-0.09320131689310074
1758447384626435300,0.980435302734375,0.0347081795334816,0.028932049870491028,-0.04999419301748276
1758447384636407300,0.9904072265625,0.03545839339494705,-0.012123508378863335,-0.016875386238098145
1758447384646379300,1.000379150390625,0.03967204689979553,-0.03244476020336151,0.016326775774359703
1758447384656352300,1.010352294921875,0.0452905148267746,-0.04006193205714226,0.04854436591267586
1758447384666324500,1.020324462890625,0.04273787513375282,-0.04019908607006073,0.07315197587013245
1758447384676296200,1.030296142578125,0.025176726281642914,-0.02540282905101776,0.08375535160303116
1758447384686268400,1.040268310546875,0.00626029260456562,0.004190484061837196,0.08271298557519913
1758447384696241400,1.050241455078125,-0.004727377090603113,0.020601946860551834,0.06507780402898788
1758447384706213000,1.060213134765625,-0.007021424360573292,0.034088194370269775,0.04122147336602211
1758447384716185300,1.070185302734375,-0.010265154764056206,0.04837605357170105,0.011423363350331783
1758447384726158300,1.080158447265625,-0.01546337828040123,0.06094963848590851,-0.01822587475180626
1758447384736130300,1.09013037109375,-0.026271285489201546,0.05699723958969116,-0.042578086256980896
1758447384746102300,1.100102294921875,-0.04147553816437721,0.03419046103954315,-0.05122297257184982
1758447384756074000,1.110073974609375,-0.04953692480921745,0.0036538569256663322,-0.04005980119109154
1758447384766046700,1.120046630859375,-0.05705556273460388,-0.0338708832859993,-0.009487511590123177
1758447384776019000,1.13001904296875,-0.059593554586172104,-0.05519161745905876,0.026681145653128624
1758447384785991000,1.139990966796875,-0.06208760663866997,-0.0718827098608017,0.05796369910240173
1758447384795963600,1.149963623046875,-0.06477952748537064,-0.06551109999418259,0.07037056982517242
1758447384805935900,1.159935791015625,-0.04953080043196678,-0.015111841261386871,0.0728616863489151
1758447384815907800,1.169907958984375,-0.020019514486193657,0.03578782454133034,0.05853734537959099
1758447384825879800,1.1798798828125,0.012310462072491646,0.07280762493610382,0.03310761973261833
1758447384835852800,1.189852783203125,0.0325387679040432,0.0908321663737297,0.0038842204958200455
1758447384845825000,1.199824951171875,0.040892038494348526,0.07996513694524765,-0.021027520298957825
1758447384855796700,1.209796630859375,0.03206232935190201,0.062430888414382935,-0.043661195784807205
1758447384865770000,1.21977001953125,0.015672169625759125,0.05270875245332718,-0.05413913354277611
1758447384875742000,1.229741943359375,-0.0010319749126210809,0.04484869912266731,-0.05038407817482948
1758447384885714000,1.2397138671875,-0.007937018759548664,0.03563442826271057,-0.03592657670378685
1758447384895686000,1.249685791015625,-0.008376174606382847,0.024933844804763794,-0.016702547669410706
1758447384905659000,1.259658935546875,-0.0010556770721450448,0.008326373063027859,0.002883670851588249
1758447384915630800,1.269630859375,0.0130319120362401,-0.005558283533900976,0.018737202510237694
1758447384925602800,1.279602783203125,0.03279842808842659,-0.007678692229092121,0.030360301956534386
1758447384935576000,1.289576171875,0.04850921407341957,0.005714611150324345,0.0326884388923645
1758447384945547800,1.2995478515625,0.06308548897504807,0.017594439908862114,0.030549120157957077
1758447384955520000,1.30952001953125,0.07213225215673447,0.03424612060189247,0.027846544981002808
1758447384965493000,1.319492919921875,0.07218524813652039,0.029508357867598534,0.02696770243346691
1758447384975464700,1.329464599609375,0.06220398470759392,0.022890668362379074,0.03345782682299614
1758447384985437000,1.33943701171875,0.04404442384839058,0.022549517452716827,0.037880003452301025
1758447384995409000,1.349408935546875,0.027004186064004898,0.024102672934532166,0.037825409322977066
1758447385005382000,1.3593818359375,0.01679256185889244,0.03128281980752945,0.029991455376148224
1758447385015353900,1.369353759765625,0.01660507544875145,0.052803292870521545,0.01570359617471695
1758447385025325800,1.379325927734375,0.022758575156331062,0.08675726503133774,-0.003236273303627968
1758447385035298800,1.389298828125,0.024356737732887268,0.09937212616205215,-0.030069751664996147
1758447385045271000,1.39927099609375,0.016269784420728683,0.07547345012426376,-0.05862389877438545
1758447385055242800,1.40924267578125,0.0017294568242505193,0.044933121651411057,-0.07678106427192688
1758447385065215000,1.419215087890625,-0.015390141867101192,0.012521650642156601,-0.07961466908454895
1758447385075188000,1.42918798828125,-0.03169853985309601,-0.023803865537047386,-0.05867663025856018
1758447385085159700,1.43915966796875,-0.04333948343992233,-0.06247642636299133,-0.02262275479733944
1758447385095132000,1.4491318359375,-0.05584755167365074,-0.07683166116476059,0.020322315394878387
1758447385105105000,1.45910498046875,-0.06344768404960632,-0.0727120190858841,0.05659909546375275
1758447385115076900,1.469076904296875,-0.06304101645946503,-0.070887491106987,0.07438714802265167
1758447385125048800,1.479048828125,-0.05835571885108948,-0.06993141025304794,0.073931485414505
1758447385135021800,1.489021728515625,-0.04698535054922104,-0.07534721493721008,0.05500759184360504
1758447385144993800,1.498993896484375,-0.03662671893835068,-0.07742208987474442,0.02743881568312645
1758447385154965800,1.5089658203125,-0.03074379824101925,-0.0806112214922905,0.0006013417732901871
1758447385164938000,1.51893798828125,-0.03533988073468208,-0.09577712416648865,-0.027393540367484093
1758447385174910700,1.52891064453125,-0.04291684180498123,-0.09526819735765457,-0.05425737798213959
1758447385184883000,1.538883056640625,-0.04668707773089409,-0.07195115834474564,-0.07883862406015396
1758447385194855000,1.54885498046875,-0.04697709530591965,-0.021890651434659958,-0.0990525484085083
1758447385204828000,1.558827880859375,-0.04283028841018677,0.03593722730875015,-0.10866602510213852
1758447385214800000,1.5687998046875,-0.03756655007600784,0.08220778405666351,-0.10959440469741821
1758447385224772000,1.578772216796875,-0.03236087039113045,0.1131497249007225,-0.10199720412492752
1758447385234743800,1.588743896484375,-0.028778385370969772,0.1325034499168396,-0.08264508098363876
1758447385244716800,1.598716796875,-0.02359374240040779,0.13779914379119873,-0.05849659815430641
1758447385254689000,1.60868896484375,-0.011907791718840599,0.12482582032680511,-0.022585736587643623
1758447385264660700,1.61866064453125,0.0005619269795715809,0.10424251854419708,0.01846875622868538
1758447385274634000,1.628634033203125,0.005428587552160025,0.07617892324924469,0.05541186034679413
1758447385284606000,1.63860595703125,0.00019973708549514413,0.0331566222012043,0.06534678488969803
1758447385294578000,1.648577880859375,-0.014415957033634186,-0.0049372343346476555,0.05494900420308113
1758447385304551000,1.658551025390625,-0.02821486070752144,-0.033589918166399,0.0288779865950346
1758447385314523000,1.66852294921875,-0.028235100209712982,-0.049612559378147125,0.000511593243572861
1758447385324494800,1.678494873046875,-0.01991964504122734,-0.05843082070350647,-0.022367622703313828
1758447385334466800,1.688466796875,-0.006191316992044449,-0.05913496017456055,-0.03422801196575165
1758447385344440000,1.698440185546875,0.005696501582860947,-0.034874893724918365,-0.03734550625085831
1758447385354411800,1.708411865234375,0.016028501093387604,0.0035545211285352707,-0.036917272955179214
1758447385364384000,1.718384033203125,0.019648535177111626,0.030657511204481125,-0.03544401004910469
1758447385374357000,1.72835693359375,0.025074725970625877,0.03907176852226257,-0.04296211525797844
1758447385384329000,1.738328857421875,0.033009082078933716,0.03622298687696457,-0.04343375936150551
1758447385394301000,1.748301025390625,0.04212721437215805,0.022543126717209816,-0.0338868610560894
1758447385404273000,1.75827294921875,0.04134690761566162,0.004023237619549036,-0.010990332812070847
1758447385414246000,1.768245849609375,0.03156671300530434,-0.017826134338974953,0.017785655334591866
1758447385424217900,1.7782177734375,0.019577430561184883,-0.034502848982810974,0.04366998374462128
1758447385434189800,1.78818994140625,0.020050140097737312,-0.054847270250320435,0.05890220031142235
1758447385444162800,1.798162841796875,0.027660923078656197,-0.0531790666282177,0.06955937296152115
1758447385454135000,1.808135009765625,0.032884977757930756,-0.0359012745320797,0.06236004829406738
1758447385464106800,1.818106689453125,0.033851705491542816,-0.041544511914253235,0.03873834013938904
1758447385474079700,1.828079833984375,0.030667897313833237,-0.022223813459277153,0.012683571316301823
1758447385484052000,1.838052001953125,0.029945649206638336,0.01684635877609253,-0.015847938135266304
1758447385494023700,1.848023681640625,0.03321441262960434,0.05752747505903244,-0.04472299665212631
1758447385503996000,1.857995849609375,0.040281377732753754,0.0908268392086029,-0.06447699666023254
1758447385513969000,1.867968994140625,0.048231177031993866,0.0908910259604454,-0.07938244193792343
1758447385523940900,1.87794091796875,0.049250371754169464,0.08558014780282974,-0.08017925918102264
1758447385533912800,1.887912841796875,0.048467934131622314,0.07943703234195709,-0.06318056583404541
1758447385543885800,1.8978857421875,0.046778690069913864,0.06779928505420685,-0.037339381873607635
1758447385553857800,1.90785791015625,0.035528700798749924,0.04980830103158951,-0.0089404983446002
1758447385563830000,1.917830078125,0.029021797701716423,0.027484355494379997,0.020110860466957092
1758447385573801700,1.9278017578125,0.01835823431611061,-0.001190433045849204,0.044012200087308884
1758447385583774700,1.937774658203125,0.008304002694785595,-0.031987227499485016,0.06274141371250153
1758447385593747000,1.947746826171875,0.00047058056225068867,-0.05753093585371971,0.0657648965716362
1758447385603718700,1.95771875,-0.0036157737486064434,-0.05792961269617081,0.0676054060459137
1758447385613692000,1.96769189453125,-0.0003171824791934341,-0.047678571194410324,0.05754745006561279
1758447385623663900,1.977663818359375,0.004001665860414505,-0.020619524642825127,0.03851436823606491
1758447385633635800,1.9876357421875,0.007416370790451765,0.0203353650867939,0.020420053973793983
1758447385643608800,1.99760888671875,0.015915850177407265,0.06245299056172371,0.007288272958248854
1758447385653580800,2.007580810546875,0.01877954602241516,0.08133586496114731,-0.005060538649559021
1758447385663552800,2.017552734375,0.01744530349969864,0.07733739912509918,-0.020201673731207848
1758447385673524700,2.027524658203125,0.014852449297904968,0.07321029901504517,-0.022944197058677673
1758447385683498000,2.037498046875,0.013002084568142891,0.050330016762018204,-0.01985280029475689
1758447385693469700,2.0474697265625,0.005616073962301016,0.013425793498754501,-0.009806823916733265
1758447385703442000,2.05744189453125,-0.004163053352385759,-0.001079645473510027,0.012219914235174656
1758447385713415000,2.067414794921875,-0.012753079645335674,-0.012317652814090252,0.035047467797994614
1758447385723387000,2.077386962890625,-0.020267188549041748,-0.040947698056697845,0.050631750375032425
1758447385733358800,2.08735888671875,-0.03158162906765938,-0.07179456204175949,0.05392288789153099
1758447385743331000,2.0973310546875,-0.03684350103139877,-0.08305307477712631,0.05320889130234718
1758447385753304000,2.107303955078125,-0.032215993851423264,-0.08747951686382294,0.05766462907195091
1758447385763276000,2.117276123046875,-0.025657959282398224,-0.10132315754890442,0.0601901039481163
1758447385773248000,2.127248046875,-0.01798645779490471,-0.0939219668507576,0.05378227308392525
1758447385783221000,2.137220947265625,-0.001749430550262332,-0.04465002566576004,0.04327823221683502
1758447385793193200,2.147193115234375,0.01806022599339485,0.006485596299171448,0.033240512013435364
1758447385803165000,2.1571650390625,0.037159617990255356,0.03873354569077492,0.019224826246500015
1758447385813138000,2.167137939453125,0.05083867907524109,0.04869163781404495,0.007539941463619471
1758447385823110100,2.177110107421875,0.057795122265815735,0.04637175798416138,-0.0043835630640387535
1758447385833081900,2.187081787109375,0.05198463797569275,0.05668218806385994,-0.010968761518597603
1758447385843054000,2.19705419921875,0.03754790872335434,0.07161692529916763,-0.01534939557313919
1758447385853027000,2.207027099609375,0.01762346923351288,0.06506875157356262,-0.02167174033820629
1758447385862999000,2.2169990234375,-0.0019534286111593246,0.04836487025022507,-0.029141640290617943
1758447385872971000,2.226970947265625,-0.016504408791661263,0.022065620869398117,-0.026989273726940155
1758447385882944000,2.236944091796875,-0.019096462056040764,-0.012239089235663414,-0.018084727227687836
1758447385892916000,2.246916015625,-0.019513513892889023,-0.03804565221071243,-0.004311125259846449
1758447385902888000,2.256887939453125,-0.02443397045135498,-0.04072319343686104,0.015972841531038284
1758447385912860000,2.26685986328125,-0.029558690264821053,-0.015993880107998848,0.030276145786046982
1758447385922833000,2.2768330078125,-0.03142263740301132,0.015422365628182888,0.04366891831159592
1758447385932805000,2.28680517578125,-0.02780926041305065,0.041675008833408356,0.040045686066150665
1758447385942776800,2.29677685546875,-0.014511032029986382,0.05802521854639053,0.025422535836696625
1758447385952750000,2.30675,-0.005239236634224653,0.06778597086668015,0.0021760689560323954
1758447385962722000,2.31672216796875,0.0010223875287920237,0.06671671569347382,-0.02340412512421608
1758447385972694000,2.326694091796875,-0.0012394351651892066,0.05904121696949005,-0.04233946651220322
1758447385982667000,2.3366669921875,-0.016107596457004547,0.04599225893616676,-0.047864992171525955
1758447385992639000,2.346638916015625,-0.03202877193689346,0.030066821724176407,-0.04403749853372574
1758447386002611000,2.35661083984375,-0.04507480189204216,0.005903162993490696,-0.03134141117334366
1758447386012583000,2.3665830078125,-0.051294080913066864,-0.008476309478282928,-0.008833439089357853
1758447386022556200,2.37655615234375,-0.044977061450481415,-0.0056986319832503796,0.010705907829105854
1758447386032528000,2.38652783203125,-0.03469912335276604,0.006929545197635889,0.023990022018551826
1758447386042500000,2.3965,-0.02184484526515007,0.012811669148504734,0.03128015995025635
1758447386052473000,2.40647314453125,-0.010729609988629818,0.023074425756931305,0.030305707827210426
1758447386062444800,2.41644482421875,-0.0005869606975466013,0.038425952196121216,0.03440617769956589
1758447386072417000,2.4264169921875,0.004217914305627346,0.044375453144311905,0.03759424760937691
1758447386082389000,2.436388916015625,0.004876248072832823,0.04483964294195175,0.04162760451436043
1758447386092362000,2.446362060546875,0.0033635725267231464,0.045107025653123856,0.041374605149030685
1758447386102334000,2.456333984375,0.00044794369023293257,0.0372360534965992,0.03471377119421959
1758447386112306000,2.466305908203125,-0.00321896281093359,0.026459038257598877,0.01780829206109047
1758447386122279000,2.47627880859375,-0.003421895671635866,0.023784957826137543,-0.0022394522093236446
1758447386132251100,2.486251220703125,0.0003046656202059239,0.02148904651403427,-0.022000906988978386
1758447386142222800,2.496222900390625,0.004585430957376957,0.025303758680820465,-0.030709177255630493
1758447386152195800,2.50619580078125,0.006557235028594732,0.04056846350431442,-0.02714134007692337
1758447386162168000,2.51616796875,0.001219461439177394,0.06759129464626312,-0.014756575226783752
1758447386172139800,2.526139892578125,-0.006927414797246456,0.07523882389068604,0.003183809109032154
1758447386182112000,2.536112060546875,-0.01792280748486519,0.05884520709514618,0.014819959178566933
1758447386192085000,2.5460849609375,-0.027361316606402397,0.02594424970448017,0.02004081942141056
1758447386202057000,2.556056884765625,-0.02954590693116188,-0.015917712822556496,0.019994746893644333
1758447386212029000,2.56602880859375,-0.03332599997520447,-0.05991819500923157,0.013687049970030785
1758447386222002000,2.576001953125,-0.037587057799100876,-0.07645376026630402,0.005317267496138811
1758447386231974000,2.585973876953125,-0.0327233262360096,-0.05883615091443062,0.008705341257154942
1758447386241945900,2.59594580078125,-0.0305176954716444,-0.023853933438658714,0.01372113823890686
1758447386251919000,2.605919189453125,-0.025236114859580994,0.013717410154640675,0.020905548706650734
1758447386261890800,2.615890869140625,-0.02081420086324215,0.036327116191387177,0.022004634141921997
1758447386271863000,2.625863037109375,-0.012075571343302727,0.05541905015707016,0.02353568561375141
1758447386281835000,2.6358349609375,0.0006261091912165284,0.06216936558485031,0.02298174798488617
1758447386291808000,2.64580810546875,0.008871788159012794,0.047566186636686325,0.02291996218264103
1758447386301780000,2.655780029296875,0.014512363821268082,0.015017565339803696,0.023485617712140083
1758447386311752200,2.665752197265625,0.009978065267205238,-0.03994501754641533,0.0221503097563982
1758447386321725000,2.675724853515625,-0.002772350562736392,-0.10791315138339996,0.012138688005506992
1758447386331697000,2.68569677734375,-0.016036756336688995,-0.13428883254528046,0.0031095067970454693
1758447386341669000,2.695669189453125,-0.019150791689753532,-0.11110015213489532,-0.0004223773430567235
1758447386351640800,2.705640869140625,-0.0256305281072855,-0.07234103977680206,-0.006069077644497156
1758447386361614000,2.715614013671875,-0.030398918315768242,-0.024450214579701424,-0.02050953544676304
1758447386371586000,2.7255859375,-0.025713086128234863,0.028629513457417488,-0.03482216224074364
1758447386381558000,2.73555810546875,-0.004526308737695217,0.06544052809476852,-0.042141593992710114
1758447386391531000,2.745531005859375,0.02087944932281971,0.09284072369337082,-0.04289074242115021
1758447386401503000,2.7555029296875,0.03322959318757057,0.0962919145822525,-0.039394278079271317
1758447386411475000,2.765474853515625,0.026372218504548073,0.06521975249052048,-0.03916018456220627
1758447386421448000,2.775447998046875,0.00506906071677804,0.005970008205622435,-0.04572620987892151
1758447386431420200,2.785420166015625,-0.01805410161614418,-0.05583423748612404,-0.04776326194405556
1758447386441391900,2.795391845703125,-0.03352919965982437,-0.08407039940357208,-0.039209987968206406
1758447386451364000,2.805364013671875,-0.041375670582056046,-0.0841447040438652,-0.014035391621291637
1758447386461337000,2.815337158203125,-0.041486456990242004,-0.06739448755979538,0.021819544956088066
1758447386471309000,2.82530908203125,-0.03892236575484276,-0.04426972568035126,0.05847076699137688
1758447386481281000,2.835281005859375,-0.0320918895304203,-0.007662447169423103,0.08599214255809784
1758447386491254000,2.84525390625,-0.015203453600406647,0.028357073664665222,0.0913352370262146
1758447386501226000,2.85522607421875,0.003011236200109124,0.04117966070771217,0.07979762554168701
1758447386511198000,2.865197998046875,0.024456074461340904,0.042520295828580856,0.05507949739694595
1758447386521170000,2.875169921875,0.03491697087883949,0.035655997693538666,0.030169088393449783
1758447386531143000,2.885142822265625,0.03550819307565689,0.02437831088900566,0.009166600182652473
1758447386541115100,2.895115234375,0.02334234118461609,0.01375043299049139,0.0008564725867472589
1758447386551086800,2.9050869140625,0.003644536016508937,0.006386526394635439,0.006992129608988762
1758447386561059800,2.915059814453125,-0.013381585478782654,-0.0009214537567459047,0.018609104678034782
1758447386571032000,2.925031982421875,-0.0256867203861475,-0.011201521381735802,0.026037726551294327
1758447386581004000,2.935004150390625,-0.019448265433311462,-0.010647318325936794,0.0356362909078598
1758447386590977000,2.94497705078125,0.0018157431622967124,-0.0007680556736886501,0.04210644215345383
1758447386600949000,2.954948974609375,0.027847077697515488,0.01130724884569645,0.04345666244626045
1758447386610921000,2.9649208984375,0.0447099469602108,0.015601330436766148,0.03838147595524788
1758447386620893000,2.974892822265625,0.04605218023061752,0.013983460143208504,0.02424701675772667
1758447386630866200,2.9848662109375,0.03681899979710579,0.012948821298778057,0.006983341183513403
1758447386640838000,2.994837890625,0.021434452384710312,0.013057212345302105,-0.005855492316186428
1758447386650810000,3.00481005859375,0.009525860659778118,0.007119162008166313,-0.015572302043437958
1758447386660783000,3.014783203125,-0.0019358517602086067,-0.004293814767152071,-0.03008226864039898
1758447386670754800,3.0247548828125,-0.001927862293086946,0.002014148747548461,-0.03465491533279419
1758447386680727000,3.03472705078125,0.004094077739864588,0.009188970550894737,-0.03579607978463173
1758447386690699000,3.044698974609375,0.01085690874606371,0.027667047455906868,-0.029998378828167915
1758447386700672000,3.054672119140625,0.014882809482514858,0.046488139778375626,-0.020871194079518318
1758447386710644000,3.06464404296875,0.013711551204323769,0.05152737349271774,-0.012954148463904858
1758447386720616200,3.0746162109375,0.010067281313240528,0.04585377499461174,-0.006067479960620403
1758447386730589000,3.0845888671875,0.0049561429768800735,0.03500725328922272,-0.000586161739192903
1758447386740561000,3.094560791015625,-0.0004852279380429536,0.009556487202644348,0.002510828198865056
1758447386750533400,3.104533447265625,-0.008275773376226425,-0.020365992560982704,0.010397247038781643
1758447386760506400,3.11450634765625,-0.012835904024541378,-0.043889161199331284,0.021810224279761314
1758447386770478300,3.124478271484375,-0.016266854479908943,-0.05459187179803848,0.03758838772773743
1758447386780450300,3.1344501953125,-0.017898572608828545,-0.05984921753406525,0.05380624160170555
1758447386790422500,3.144422607421875,-0.021767612546682358,-0.05926811695098877,0.057851847261190414
1758447386800395300,3.154395263671875,-0.027148796245455742,-0.036249883472919464,0.05311781167984009
1758447386810367200,3.1643671875,-0.025679530575871468,-0.013214338570833206,0.03693857789039612
1758447386820339500,3.17433935546875,-0.021517543122172356,-0.0010428938549011946,0.015996010974049568
1758447386830312200,3.184312255859375,-0.018513763323426247,0.008439823985099792,-0.00395692465826869
1758447386840284400,3.194284423828125,-0.01570492796599865,0.020024575293064117,-0.016952352598309517
1758447386850256400,3.20425634765625,-0.007414506748318672,0.025018267333507538,-0.019349463284015656
1758447386860228400,3.214228271484375,-0.00126739835832268,0.02353142574429512,-0.013082512654364109
1758447386870201300,3.224201416015625,0.007207046262919903,0.018984610214829445,0.0019883159548044205
1758447386880173600,3.234173583984375,0.012634302489459515,0.01954547129571438,0.020861338824033737
1758447386890145300,3.244145263671875,0.014221546240150928,0.01914200372993946,0.037576138973236084
1758447386900118300,3.2541181640625,0.01002307329326868,0.011592207476496696,0.03756601735949516
1758447386910090500,3.264090576171875,0.002507898723706603,0.014190121553838253,0.025717880576848984
1758447386920062200,3.274062255859375,0.00022929816623218358,0.023739684373140335,0.010457967408001423
1758447386930035500,3.284035400390625,0.005512743256986141,0.03381548821926117,-0.00035659727291204035
1758447386940007400,3.29400732421875,0.0202791728079319,0.04303854703903198,-0.008182828314602375
1758447386949979400,3.3039794921875,0.02906014770269394,0.05203736945986748,-0.0073473951779305935
1758447386959951400,3.313951416015625,0.02900874800980091,0.040762078016996384,-0.01236479077488184
1758447386969924400,3.32392431640625,0.01757925935089588,0.014829279854893684,-0.02478710561990738
1758447386979896300,3.333896240234375,0.0012570120161399245,-0.013525662012398243,-0.03689809516072273
1758447386989868300,3.343868408203125,-0.010384996421635151,-0.0437416210770607,-0.031083883717656136
1758447386999841300,3.35384130859375,-0.012805011123418808,-0.07379832118749619,-0.01116263959556818
1758447387009813200,3.363813232421875,-0.013735519722104073,-0.09387429803609848,0.017049556598067284
1758447387019785500,3.373785400390625,-0.008255266584455967,-0.0699457973241806,0.05480732396245003
1758447387029757200,3.383757080078125,0.0012719257501885295,-0.028845496475696564,0.0879916399717331
1758447387039730400,3.39373046875,0.01110405009239912,0.009984989650547504,0.10105524212121964
1758447387049702400,3.403702392578125,0.02562999539077282,0.031629033386707306,0.08737858384847641
1758447387059674400,3.41367431640625,0.04038683697581291,0.02604624815285206,0.052810750901699066
1758447387069647400,3.4236474609375,0.047978177666664124,0.012537895701825619,0.007479487918317318
1758447387079619300,3.433619384765625,0.04652995243668556,0.004334827419370413,-0.03960360214114189
1758447387089591300,3.44359130859375,0.03785017505288124,0.003495665267109871,-0.06697477400302887
1758447387099564300,3.453564208984375,0.021496502682566643,0.005118861794471741,-0.0730782076716423
1758447387109536500,3.46353662109375,0.01016848161816597,-0.001609081868082285,-0.05861857160925865
1758447387119508200,3.47350830078125,0.004316451493650675,-0.007196393795311451,-0.03021382912993431
1758447387129480400,3.48348046875,0.00842677429318428,-0.007815312594175339,0.004335360135883093
1758447387139453400,3.493453369140625,0.020414726808667183,-0.006758570205420256,0.037032853811979294
1758447387149425200,3.503425048828125,0.034150514751672745,-0.013696104288101196,0.05829446390271187
1758447387159397400,3.5133974609375,0.04066993296146393,-0.028811408206820488,0.06438085436820984
1758447387169370400,3.523370361328125,0.039624374359846115,-0.04855635017156601,0.059484630823135376
1758447387179342300,3.53334228515625,0.038091991096735,-0.04444629326462746,0.04927487298846245
1758447387189314300,3.543314208984375,0.03510579094290733,-0.02708354964852333,0.036615535616874695
1758447387199286300,3.553286376953125,0.029264677315950394,-0.01715129055082798,0.021572669968008995
1758447387209259300,3.56325927734375,0.020790765061974525,-0.006198773626238108,0.00098217383492738
1758447387219231500,3.5732314453125,0.015571769326925278,0.014665229246020317,-0.017107879742980003
1758447387229203200,3.583203125,0.018444787710905075,0.03406662493944168,-0.03340109810233116
1758447387239176200,3.59317626953125,0.02195909433066845,0.03500405699014664,-0.041122935712337494
1758447387249148400,3.6031484375,0.024822792038321495,0.020130569115281105,-0.04036526754498482
1758447387259120000,3.6131201171875,0.020058397203683853,-0.007984423078596592,-0.03002900443971157
1758447387269092400,3.62309228515625,0.008206530474126339,-0.025043301284313202,-0.00866086594760418
1758447387279065300,3.6330654296875,-0.002493517706170678,-0.025585521012544632,0.019691413268446922
1758447387289037300,3.643037353515625,-0.009562612511217594,-0.0193670392036438,0.045038849115371704
1758447387299009300,3.65300927734375,-0.014877483248710632,-0.018847988918423653,0.053755905479192734
1758447387308982300,3.662982177734375,-0.014682273380458355,-0.031621843576431274,0.05026077479124069
1758447387318954200,3.672954345703125,-0.012425776571035385,-0.04267582297325134,0.03074592910706997
1758447387328926200,3.68292626953125,-0.010876882821321487,-0.040582314133644104,0.007084274664521217
1758447387338898400,3.6928984375,-0.009111739695072174,-0.02642068825662136,-0.015413577668368816
1758447387348871200,3.70287109375,-0.007961253635585308,0.002886333968490362,-0.024034762755036354
1758447387358843400,3.712843505859375,-0.005072522908449173,0.02943591959774494,-0.021465610712766647
1758447387368815400,3.7228154296875,-0.0030075078830122948,0.048165399581193924,-0.009995109401643276
1758447387378788400,3.732788330078125,-0.0046152579598128796,0.04736005887389183,-0.0031401331070810556
1758447387388760300,3.74276025390625,-0.007610515225678682,0.026990605518221855,0.00042344260145910084
1758447387398732500,3.752732666015625,-0.008551144041121006,-0.0013701963471248746,0.0051984903402626514
1758447387408705300,3.762705322265625,-0.005687979515641928,-0.033792849630117416,0.008357265964150429
1758447387418677200,3.77267724609375,-0.00138058268930763,-0.051651209592819214,0.01149686612188816
1758447387428649500,3.7826494140625,0.005642971955239773,-0.036128442734479904,0.019405655562877655
1758447387438621200,3.79262109375,0.01642371341586113,-0.010932276025414467,0.030719829723238945
1758447387448594400,3.802594482421875,0.013076120987534523,0.013370400294661522,0.028685441240668297
1758447387458566400,3.81256640625,0.005456816870719194,0.03829226270318031,0.019097527489066124
1758447387468538400,3.822538330078125,0.0009182579233311117,0.03759744390845299,-0.0015459649730473757
1758447387478511400,3.832511474609375,0.0007696535321883857,0.02497752197086811,-0.031432490795850754
1758447387488483300,3.8424833984375,0.005842975340783596,0.023499466478824615,-0.05185121297836304
1758447387498455300,3.852455322265625,0.01423219870775938,0.027818581089377403,-0.05994322896003723
1758447387508427300,3.86242724609375,0.009949303232133389,0.02064162865281105,-0.05774665251374245
1758447387518400500,3.872400390625,-0.003367034485563636,0.010043312795460224,-0.053094908595085144
1758447387528372200,3.882372314453125,-0.01920432038605213,0.000032490566809428856,-0.041003890335559845
1758447387538344400,3.892344482421875,-0.02563612163066864,-0.02743908204138279,-0.028981849551200867
1758447387548317400,3.9023173828125,-0.022638199850916862,-0.05231194198131561,-0.013922739773988724
1758447387558289400,3.912289306640625,-0.017944911494851112,-0.050630953162908554,0.0060051619075238705
1758447387568261400,3.922261474609375,-0.010821222327649593,-0.03087668865919113,0.02851712889969349
1758447387578233300,3.9322333984375,-0.005637379363179207,-0.004346545320004225,0.05030764639377594
1758447387588206300,3.942206298828125,-0.002162220422178507,0.01326786819845438,0.06124471500515938
1758447387598178300,3.95217822265625,0.002085521351546049,0.010935472324490547,0.055810533463954926
1758447387608150300,3.962150390625,0.00782836228609085,-0.0007880293414928019,0.037934064865112305
1758447387618123300,3.972123291015625,0.009312807582318783,0.008530637249350548,0.013019927777349949
1758447387628095500,3.982095458984375,0.006915164180099964,0.011461712419986725,-0.011521900072693825
1758447387638067200,3.992067138671875,-0.004856540355831385,0.005315669346600771,-0.03164447844028473
1758447387648040200,4.002040283203125,-0.017226656898856163,-0.004976915195584297,-0.041367679834365845
1758447387658012400,4.012012451171875,-0.025423334911465645,-0.023453393951058388,-0.03899267315864563
1758447387667984100,4.021984130859375,-0.029416212812066078,-0.04320180043578148,-0.026820162311196327
1758447387677956400,4.031956298828125,-0.021280255168676376,-0.04807458445429802,-0.005894374568015337
1758447387687929300,4.041929443359375,-0.009809221141040325,-0.03177204355597496,0.017588846385478973
1758447387697901300,4.0519013671875,0.0028242822736501694,-0.0016314524691551924,0.03915033116936684
1758447387707873300,4.061873291015625,0.01296560000628233,0.01992150954902172,0.05336042493581772
1758447387717846300,4.07184619140625,0.016354471445083618,0.02069436013698578,0.051839761435985565
1758447387727818200,4.081818359375,0.010215086862444878,0.004071973264217377,0.025949575006961823
1758447387737790500,4.09179052734375,0.0009656621841713786,-0.006638728082180023,-0.01113547571003437
1758447387747762400,4.101762451171875,-0.003099120454862714,0.004166249185800552,-0.044018588960170746
1758447387757735400,4.1117353515625,-0.0000500674286740832,0.030853519216179848,-0.06589166820049286
1758447387767707600,4.121707763671875,0.011717642657458782,0.05859912931919098,-0.07617200165987015
1758447387777679600,4.1316796875,0.019538547843694687,0.0674128606915474,-0.07177352160215378
1758447387787652600,4.141652587890625,0.026438532397150993,0.06639793515205383,-0.05829047039151192
1758447387801363500,4.155363525390625,0.023780163377523422,0.04012611508369446,-0.026564233005046844
1758447387811335700,4.165335693359375,0.01359543763101101,-0.0011241203173995018,-0.007812915369868279
1758447387821307600,4.1753076171875,-0.003858654061332345,-0.039918120950460434,0.01513074990361929
1758447387831280400,4.1852802734375,-0.012074772268533707,-0.06221836805343628,0.03714204207062721
1758447387841252600,4.195252685546875,-0.01492408849298954,-0.06308522820472717,0.05374711751937866
1758447387851224600,4.205224609375,-0.016394685953855515,-0.054596398025751114,0.05777328461408615
1758447387861197600,4.215197509765625,-0.015593074262142181,-0.034085530787706375,0.04583007097244263
1758447387871169500,4.22516943359375,-0.014146178960800171,-0.005285575985908508,0.029142173007130623
1758447387881141800,4.235141845703125,-0.01215546578168869,0.01323777437210083,-0.004293548408895731
1758447387891113500,4.245113525390625,-0.007433947641402483,0.02888863906264305,-0.038227811455726624
1758447387901086500,4.25508642578125,-0.007451524492353201,0.04023929685354233,-0.07127684354782104
1758447387911058700,4.26505859375,-0.005172657780349255,0.04459942504763603,-0.08445602655410767
1758447387921030400,4.275030517578125,-0.005131112411618233,0.038371358066797256,-0.08053053170442581
1758447387931003600,4.285003662109375,-0.006822752300649881,0.028913673013448715,-0.052917808294296265
1758447387940975600,4.2949755859375,-0.008194546215236187,0.006730340886861086,-0.014154967851936817
1758447387950947600,4.304947509765625,-0.012866529636085033,-0.012320848181843758,0.021945245563983917
1758447387960919600,4.31491943359375,-0.018488729372620583,-0.019539879634976387,0.05365843325853348
1758447387970892500,4.324892578125,-0.01613369584083557,-0.021310880780220032,0.07205715030431747
1758447387980864500,4.334864501953125,-0.014296647161245346,-0.02201502025127411,0.07383028417825699
1758447387990836700,4.344836669921875,-0.013164271600544453,-0.007814779877662659,0.05716288834810257
1758447388000809700,4.354809814453125,-0.010716826654970646,0.010031861253082752,0.03260454908013344
1758447388010781400,4.364781494140625,-0.00660677021369338,0.019477294757962227,0.0046639940701425076
1758447388020753700,4.374753662109375,0.0041183121502399445,0.030350448563694954,-0.014631673693656921
1758447388030725400,4.384725341796875,0.008703743107616901,0.0486101470887661,-0.024477379396557808
1758447388040698600,4.39469873046875,0.004793690051883459,0.06915483623743057,-0.023897875100374222
1758447388050670600,4.404670654296875,-0.007424360606819391,0.07215888053178787,-0.027038808912038803
1758447388060642600,4.414642578125,-0.02937200292944908,0.0567500963807106,-0.035182755440473557
1758447388070615600,4.424615478515625,-0.04627588391304016,0.02534344047307968,-0.05104028061032295
1758447388080587500,4.43458740234375,-0.05447549372911453,-0.013499829918146133,-0.059549082070589066
1758447388090560800,4.444560791015625,-0.04635018855333328,-0.05306242033839226,-0.05205494537949562
1758447388100532500,4.454532470703125,-0.03837588429450989,-0.06327857077121735,-0.022417690604925156
1758447388110504700,4.464504638671875,-0.032522521913051605,-0.04545030742883682,0.02377084270119667
1758447388120477700,4.474477783203125,-0.02827664464712143,-0.025240108370780945,0.0733218863606453
1758447388130449400,4.484449462890625,-0.024714933708310127,-0.008702677674591541,0.10524093359708786
1758447388140421600,4.494421630859375,-0.019241072237491608,-0.010942395776510239,0.11217048019170761
1758447388150394600,4.50439453125,-0.015358449891209602,-0.022044582292437553,0.08990911394357681
1758447388160366600,4.51436669921875,-0.014423680491745472,-0.025771941989660263,0.045347508043050766
1758447388170338600,4.524338623046875,-0.019994746893644333,-0.025541312992572784,-0.007671235594898462
1758447388180310500,4.534310546875,-0.028555478900671005,-0.020420053973793983,-0.05745929852128029
1758447388190283500,4.544283447265625,-0.03972264379262924,-0.013542707078158855,-0.08545178174972534
1758447388200255700,4.554255859375,-0.0464460626244545,-0.00806058943271637,-0.08605259656906128
1758447388210227500,4.5642275390625,-0.05389971658587456,0.005238970275968313,-0.07012662291526794
1758447388220200400,4.574200439453125,-0.05520253628492355,0.02202460914850235,-0.03820677474141121
1758447388230172700,4.584172607421875,-0.05055345594882965,0.03200480341911316,-0.0032863407395780087
1758447388240144400,4.594144287109375,-0.044312603771686554,0.020142287015914917,0.02538791485130787
1758447388250116600,4.60411669921875,-0.037283189594745636,-0.008028365671634674,0.040881119668483734
1758447388260089600,4.614089599609375,-0.031130222603678703,-0.04610224813222885,0.042278748005628586
1758447388270061600,4.6240615234375,-0.029471606016159058,-0.07248058915138245,0.03682699054479599
1758447388280033500,4.634033447265625,-0.030795462429523468,-0.06565757095813751,0.02786625176668167
1758447388290006500,4.644006591796875,-0.033969949930906296,-0.03568848967552185,0.015392005443572998
1758447388299978500,4.653978515625,-0.03572310879826546,-0.002927612978965044,-0.0014346449170261621
1758447388309950500,4.663950439453125,-0.03506584092974663,0.021685054525732994,-0.015015168115496635
1758447388319922700,4.673922607421875,-0.02929823473095894,0.03861583396792412,-0.02671896293759346
1758447388329895400,4.6838955078125,-0.02672562003135681,0.03573429584503174,-0.032037295401096344
1758447388339867600,4.69386767578125,-0.022656043991446495,0.015118499286472797,-0.03153315931558609
1758447388349839600,4.703839599609375,-0.017604026943445206,-0.007652326952666044,-0.020192885771393776
1758447388359812600,4.7138125,-0.016278306022286415,-0.024524517357349396,0.0007350324303843081
1758447388369784600,4.72378466796875,-0.020015252754092216,-0.03629249334335327,0.02263314090669155
1758447388379756800,4.7337568359375,-0.03057708404958248,-0.03158482536673546,0.04175863042473793
1758447388389728500,4.743728515625,-0.034924160689115524,-0.027305390685796738,0.05115373060107231
1758447388399701500,4.753701416015625,-0.03359604254364967,-0.015776565298438072,0.04796433076262474
1758447388409673700,4.763673828125,-0.02690192125737667,-0.005357481073588133,0.035721778869628906
1758447388419645400,4.7736455078125,-0.016215454787015915,-0.007710916455835104,0.012683038599789143
1758447388429618700,4.78361865234375,-0.009404420852661133,-0.0167347714304924,-0.010270214639604092
1758447388439590700,4.793590576171875,-0.006448844447731972,-0.026870762929320335,-0.029154157266020775
1758447388449562600,4.803562744140625,-0.005690908990800381,-0.015482020564377308,-0.033596575260162354
1758447388459534600,4.81353466796875,-0.01028779149055481,0.004948419518768787,-0.025064606219530106
1758447388469507600,4.823507568359375,-0.018082864582538605,0.021228056401014328,-0.017654094845056534
1758447388479479600,4.8334794921875,-0.02412317879498005,0.025549035519361496,-0.008930377662181854
1758447388489451500,4.843451416015625,-0.02731790766119957,0.015219433233141899,-0.001740109408274293
1758447388499424800,4.8534248046875,-0.019769176840782166,-0.01329929381608963,0.0057228668592870235
1758447388509396500,4.863396484375,-0.015729693695902824,-0.04519437626004219,0.015566176734864712
1758447388519368700,4.87336865234375,-0.014767227694392204,-0.06359841674566269,0.022997194901108742
1758447388529340400,4.88334033203125,-0.023420371115207672,-0.05241633579134941,0.025889120995998383
1758447388539313700,4.893313720703125,-0.0337531715631485,-0.018205901607871056,0.024710938334465027
1758447388549285600,4.90328564453125,-0.04518904909491539,0.009386044926941395,0.009496299549937248
1758447388559257600,4.913257568359375,-0.044742703437805176,0.01684342883527279,-0.007812383119016886
1758447388569230600,4.923230712890625,-0.030709709972143173,0.005134041886776686,-0.028251877054572105
1758447388579202600,4.93320263671875,-0.014730210416018963,-0.005029113497585058,-0.04225664213299751
1758447388589174500,4.943174560546875,-0.011089934967458248,-0.021276526153087616,-0.04829908907413483
1758447388599147500,4.9531474609375,-0.020851751789450645,-0.03116271272301674,-0.05097716301679611
1758447388609119700,4.96311962890625,-0.04536401852965355,-0.043301135301589966,-0.048173919320106506
1758447388619091500,4.973091552734375,-0.06441840529441833,-0.059841763228178024,-0.04266677051782608
1758447388629063700,4.983063720703125,-0.06498964875936508,-0.07563856989145279,-0.027718447148799896
1758447388639036700,4.99303662109375,-0.05692187324166298,-0.08617190271615982,-0.006431001238524914
1758447388649008600,5.003008544921875,-0.04880375787615776,-0.0724659413099289,0.016403207555413246
1758447388658980600,5.012980712890625,-0.04875954985618591,-0.0406305156648159,0.031004788354039192
1758447388668953600,5.02295361328125,-0.05353246629238129,-0.0023787354584783316,0.03299363702535629
1758447388678925600,5.032925537109375,-0.051173705607652664,0.027302993461489677,0.022959643974900246
1758447388688897500,5.0428974609375,-0.044737644493579865,0.0545700341463089,0.002877279184758663
1758447388698869500,5.052869384765625,-0.03795084357261658,0.07335277646780014,-0.025774605572223663
1758447388708842500,5.062842529296875,-0.031002657487988472,0.06472120434045792,-0.05819619446992874
1758447388718814700,5.072814697265625,-0.03507276624441147,0.05108582228422165,-0.0749027356505394
1758447388728786400,5.082786376953125,-0.04652009904384613,0.03598036989569664,-0.07604043930768967
1758447388738759400,5.092759521484375,-0.054119426757097244,0.006381999235600233,-0.06823711097240448
1758447388748731600,5.102731689453125,-0.06345673650503159,-0.02034415304660797,-0.053593721240758896
1758447388758702600,5.11270263671875,-0.07255223393440247,-0.036433108150959015,-0.048112135380506516
1758447388768674600,5.122674560546875,-0.08054917305707932,-0.035350535064935684,-0.05463102087378502
1758447388778647300,5.132647216796875,-0.08065889030694962,-0.02382117696106434,-0.07503695785999298
1758447388788619500,5.14261962890625,-0.07636481523513794,-0.01575419493019581,-0.10634428262710571
1758447388798591500,5.152591552734375,-0.06896708160638809,-0.005805424880236387,-0.14692872762680054
1758447388808564500,5.162564453125,-0.058760520070791245,0.03837242349982262,-0.17808212339878082
1758447388818536400,5.172536376953125,-0.04439542815089226,0.09572705626487732,-0.19893813133239746
1758447388828508700,5.1825087890625,-0.03347060829401016,0.14506877958774567,-0.21602150797843933
1758447388838480400,5.19248046875,-0.03074246644973755,0.18298739194869995,-0.23415310680866241
1758447388848453600,5.20245361328125,-0.03743605688214302,0.21134500205516815,-0.25298193097114563
1758447388858425300,5.21242529296875,-0.04879310727119446,0.21136178076267242,-0.2746720314025879
1758447388868397600,5.2223974609375,-0.06167668104171753,0.19573327898979187,-0.3077290654182434
1758447388878370600,5.23237060546875,-0.06644293665885925,0.2049451619386673,-0.33300966024398804
1758447388888342300,5.24234228515625,-0.060803961008787155,0.20859262347221375,-0.3457275629043579
1758447388898314500,5.252314453125,-0.041730936616659164,0.18933823704719543,-0.33890536427497864
1758447388908286500,5.262286376953125,-0.020301010459661484,0.15070615708827972,-0.3058485984802246
1758447388918259500,5.272259521484375,-0.007950068451464176,0.1052158996462822,-0.25729650259017944
1758447388928231400,5.2822314453125,-0.009980196133255959,0.062117431312799454,-0.21388432383537292
1758447388938203600,5.29220361328125,-0.0072866748087108135,0.02359107881784439,-0.18555068969726562
1758447388948176400,5.30217626953125,0.006055229343473911,-0.05116811394691467,-0.18032556772232056
1758447388958148400,5.3121484375,0.02538285404443741,-0.020844561979174614,-0.17255659401416779
1758447388968120600,5.32212060546875,0.05186453089118004,-0.024659806862473488,-0.17631883919239044
1758447388978092500,5.332092529296875,0.06402186304330826,-0.07261721044778824,-0.19221098721027374
1758447388988065500,5.3420654296875,0.062441807240247726,-0.10399031639099121,-0.21008506417274475
1758447388998037500,5.35203759765625,0.05089886859059334,-0.12248677015304565,-0.2187347412109375
1758447389008009500,5.362009521484375,0.04499011114239693,-0.11830560117959976,-0.21946871280670166
1758447389017982500,5.371982421875,0.03990853205323219,-0.11724380403757095,-0.2173488289117813
1758447389027954700,5.38195458984375,0.03279416635632515,-0.06169505417346954,-0.21753951907157898
1758447389037926400,5.391926513671875,0.031555529683828354,0.01131284236907959,-0.2316092550754547
1758447389047898600,5.401898681640625,0.04843597486615181,0.04506840929389,-0.26707136631011963
1758447389057871600,5.41187158203125,0.06143300235271454,0.05132603645324707,-0.31056851148605347
1758447389067843300,5.42184326171875,0.06696838140487671,0.06974126398563385,-0.3432804048061371
1758447389077815600,5.431815673828125,0.07154475897550583,0.05901245400309563,-0.3344738483428955
1758447389087788500,5.44178857421875,0.02407178096473217,0.0923999696969986,-0.32888227701187134
1758447389097760500,5.451760498046875,-0.011632687412202358,0.062180016189813614,-0.3099234998226166
1758447389107732500,5.461732421875,-0.011378088966012001,0.04414935037493706,-0.26404017210006714
1758447389117704400,5.471704345703125,0.007903729565441608,0.1082305982708931,-0.18690970540046692
1758447389127677400,5.481677490234375,0.030940605327486992,0.17037759721279144,-0.11425679922103882
1758447389137649700,5.491649658203125,0.04036633297801018,0.20811964571475983,-0.09388228505849838
1758447389147621400,5.501621337890625,0.06334168463945389,0.2248152643442154,-0.13959065079689026
1758447389157594400,5.511594482421875,0.12859952449798584,0.2752733826637268,-0.22936688363552094
1758447389167566600,5.521566650390625,0.19794343411922455,0.30936717987060547,-0.3261549472808838
1758447389177538300,5.531538330078125,0.2917599380016327,0.5326870679855347,-0.4025897979736328
1758447389187510500,5.541510498046875,0.36274170875549316,0.8130415081977844,-0.5062631964683533
1758447389197483500,5.5514833984375,0.34918808937072754,0.8500826358795166,-0.626351535320282
1758447389207455500,5.56145556640625,0.2533220052719116,0.7779892683029175,-0.7833025455474854
1758447389217427500,5.571427490234375,0.061168547719717026,0.6837884187698364,-0.9832057952880859
1758447389227400400,5.581400390625,-0.17689861357212067,0.5162548422813416,-1.214469313621521
1758447389237372400,5.591372314453125,-0.3574281632900238,0.28448766469955444,-1.4893864393234253
1758447389247344400,5.601344482421875,-0.41355669498443604,0.23340024054050446,-1.811015248298645
1758447389257316600,5.611316650390625,-0.32585588097572327,0.5604915618896484,-2.1470093727111816
1758447389267289300,5.621289306640625,-0.11431512236595154,0.6528145670890808,-2.3766636848449707
1758447389277261600,5.631261474609375,0.14576758444309235,0.4723976254463196,-2.5007734298706055
1758447389287233500,5.641233642578125,0.4048311114311218,-0.13289865851402283,-2.4549756050109863
1758447389297205500,5.65120556640625,0.654904305934906,-1.0833745002746582,-2.174237012863159
1758447389307178500,5.661178466796875,0.7761271595954895,-0.9757638573646545,-2.0420849323272705
1758447389317150700,5.671150634765625,0.7841368913650513,-0.46662256121635437,-1.911734938621521
1758447389327122400,5.681122314453125,0.7118733525276184,0.26490169763565063,-1.7931712865829468
1758447389337095400,5.691095458984375,0.6217429041862488,0.9882985353469849,-1.6296015977859497
1758447389347067600,5.701067626953125,0.5929903388023376,1.483580470085144,-1.3462934494018555
1758447389357039400,5.711039306640625,0.6673340797424316,1.7213882207870483,-0.9419158697128296
1758447389367011600,5.721011474609375,0.8343893885612488,1.8809672594070435,-0.47176459431648254
1758447389376984600,5.730984619140625,1.0883457660675049,2.184420108795166,-0.016096411272883415
1758447389386956500,5.74095654296875,1.4419983625411987,2.7248246669769287,0.39259281754493713
1758447389396928500,5.750928466796875,1.7682400941848755,3.5667314529418945,0.7459181547164917
1758447389406901500,5.760901611328125,1.9242688417434692,4.15351676940918,1.1212615966796875
1758447389416873500,5.77087353515625,1.5193315744400024,4.0460124015808105,1.3908321857452393
1758447389426845400,5.780845458984375,0.1613135188817978,2.642092704772949,1.2172185182571411
1758447389436817400,5.7908173828125,-1.2699925899505615,1.176406979560852,0.9698367118835449
1758447389446790400,5.800790283203125,-1.7480920553207397,1.0383814573287964,1.1061021089553833
1758447389456762600,5.8107626953125,-1.75285804271698,1.5252991914749146,1.1643332242965698
1758447389466734300,5.820734375,-1.5277652740478516,1.3977606296539307,0.9505061507225037
1758447389476707600,5.83070751953125,-1.2810838222503662,0.753454327583313,0.5825278759002686
1758447389486679600,5.840679443359375,-1.1248552799224854,0.12547670304775238,0.3908204734325409
1758447389496651500,5.850651611328125,-1.075484037399292,-0.2646292746067047,0.46167442202568054
1758447389506623500,5.86062353515625,-1.0127825736999512,-0.22539237141609192,0.7099851369857788
1758447389516596500,5.870596435546875,-0.9636869430541992,-0.8506152629852295,0.8802381157875061
1758447389526568400,5.880568359375,-0.8546313047409058,-1.79374361038208,1.0215376615524292
1758447389536540400,5.89054052734375,-0.7714823484420776,-2.3682169914245605,1.171878457069397
1758447389546513700,5.900513671875,-0.7031650543212891,-2.7540335655212402,1.2090463638305664
1758447389556485400,5.9104853515625,-0.6665790677070618,-3.14513897895813,1.0855499505996704
1758447389566457600,5.92045751953125,-0.6526683568954468,-3.7552406787872314,0.8176503777503967
1758447389576429600,5.9304296875,-0.5875449776649475,-4.146188735961914,0.5169826745986938
1758447389586402300,5.94040234375,-0.40256956219673157,-4.298957347869873,0.27043893933296204
1758447389596374500,5.95037451171875,-0.2515970766544342,-4.63964319229126,0.14338459074497223
1758447389606346500,5.960346435546875,-0.27162858843803406,-3.4973366260528564,-0.1669469028711319
1758447389616319500,5.970319580078125,-0.2730509638786316,-1.685771107673645,-0.25096991658210754
1758447389626291500,5.98029150390625,-0.09314965456724167,-0.42937400937080383,-0.44720518589019775
1758447389636263700,5.990263671875,0.09614410996437073,-0.24307683110237122,-0.8628498315811157
1758447389646235400,6.0002353515625,0.16615834832191467,-0.04989512264728546,-1.2622499465942383
1758447389656208600,6.010208740234375,0.18237246572971344,0.3467491567134857,-1.5428352355957031
1758447389666180600,6.0201806640625,0.18290697038173676,0.24120862782001495,-1.6255311965942383
1758447389676152600,6.030152587890625,0.21021901071071625,-0.19953495264053345,-1.4955174922943115
1758447389686125600,6.04012548828125,0.28633803129196167,-0.821150004863739,-1.1894031763076782
1758447389696097500,6.05009765625,0.37146010994911194,-1.6595206260681152,-0.789530336856842
1758447389706069500,6.060069580078125,0.39900490641593933,-2.6235151290893555,-0.421406090259552
1758447389716041500,6.07004150390625,0.3305281102657318,-3.4592297077178955,-0.18545854091644287
1758447389726014700,6.0800146484375,0.2237076610326767,-3.807704448699951,-0.011485414579510689
1758447389735986400,6.089986328125,0.2292182743549347,-4.558542251586914,0.0032887374982237816
1758447389745958700,6.099958740234375,0.39619579911231995,-5.065840721130371,-0.005927131045609713
1758447389755932000,6.109931884765625,0.5928622484207153,-5.350291728973389,0.04345906153321266
1758447389765903600,6.119903564453125,0.8840251564979553,-5.708432674407959,0.16765397787094116
1758447389775875800,6.129875732421875,1.2659118175506592,-6.133969306945801,0.346278578042984
1758447389785847600,6.13984765625,1.6506586074829102,-6.747772693634033,0.5755338668823242
1758447389795820800,6.14982080078125,2.014620065689087,-7.395875453948975,0.8498498797416687
1758447389805792800,6.159792724609375,2.3408119678497314,-7.827122211456299,1.152071475982666
1758447389815764700,6.1697646484375,2.6414687633514404,-8.01904010772705,1.4255491495132446
1758447389825737700,6.17973779296875,2.93487548828125,-8.013357162475586,1.6484946012496948
1758447389835709700,6.189709716796875,3.2142250537872314,-7.802108287811279,1.771697998046875
1758447389845681700,6.199681640625,3.4439914226531982,-7.297304153442383,1.7029300928115845
1758447389855654000,6.20965380859375,3.62654972076416,-6.430365562438965,1.373396635055542
1758447389865627000,6.219626953125,3.7632055282592773,-5.215074062347412,0.8622511029243469
1758447389875598600,6.2295986328125,3.814159631729126,-3.871077537536621,0.3339601457118988
1758447389885570800,6.23957080078125,3.702876091003418,-2.948035955429077,-0.019043199717998505
1758447389895542800,6.249542724609375,3.4922239780426025,-2.805847644805908,-0.08332711458206177
1758447389905515800,6.259515869140625,3.3206992149353027,-3.277175188064575,0.2013818472623825
1758447389915487700,6.26948779296875,3.2711734771728516,-3.9685404300689697,0.7799062132835388
1758447389925460000,6.2794599609375,3.310239791870117,-4.282876491546631,1.3906524181365967
1758447389935432700,6.2894326171875,3.120508909225464,-4.019235134124756,1.808461308479309
1758447389945404700,6.29940478515625,2.6845757961273193,-3.3758726119995117,1.9242167472839355
1758447389955377000,6.309376953125,2.301046371459961,-2.4502429962158203,1.7726702690124512
1758447389965348600,6.3193486328125,2.045823335647583,-1.3701902627944946,1.4860185384750366
1758447389975321900,6.32932177734375,1.8481863737106323,-0.3956453204154968,1.134077787399292
1758447389985293800,6.3392939453125,1.6690562963485718,0.1565786898136139,0.8407722115516663
1758447389995265800,6.349265869140625,1.6183308362960815,0.23291075229644775,0.6861895322799683
1758447390005238800,6.35923876953125,1.6732723712921143,0.11471246927976608,0.5475967526435852
1758447390015210800,6.369210693359375,1.7206732034683228,0.0777834802865982,0.37900856137275696
1758447390025182700,6.3791826171875,1.6571122407913208,0.11556494235992432,0.23521704971790314
1758447390035155000,6.389155029296875,1.461564064025879,0.2054397016763687,0.14831224083900452
1758447390045127700,6.399127685546875,1.179121971130371,0.33728110790252686,0.13340093195438385
1758447390055099600,6.409099609375,0.9032099843025208,0.4378282129764557,0.16396097838878632
1758447390065071900,6.41907177734375,0.7459085583686829,0.41114678978919983,0.21913421154022217
1758447390075044600,6.429044677734375,0.6286386251449585,0.28435075283050537,0.3504118025302887
1758447390085016800,6.439016845703125,0.5779432654380798,-0.06948746740818024,0.5624971389770508
1758447390094988800,6.44898876953125,0.6338453888893127,-0.6905619502067566,0.8696190118789673
1758447390104960800,6.458960693359375,0.7767207622528076,-1.6309642791748047,1.3048131465911865
1758447390114933800,6.468933837890625,0.966766357421875,-2.582979202270508,1.861899495124817
1758447390124905700,6.47890576171875,1.132718801498413,-3.261596441268921,2.4234230518341064
1758447390134877700,6.488877685546875,1.2055754661560059,-3.621232032775879,2.889470100402832
1758447390144850700,6.4988505859375,1.135865330696106,-3.701075553894043,3.256492853164673
1758447390154823000,6.508822998046875,0.8485294580459595,-3.5345089435577393,3.445767641067505
1758447390164794600,6.518794677734375,0.4468049108982086,-3.244478225708008,3.3958747386932373
1758447390174766800,6.528766845703125,0.039210252463817596,-2.8989100456237793,3.1721487045288086
1758447390184739800,6.53873974609375,-0.305404394865036,-2.4966859817504883,2.889618396759033
1758447390194711800,6.5487119140625,-0.5601964592933655,-2.1016476154327393,2.6086223125457764
1758447390204683800,6.558683837890625,-0.803515613079071,-1.7673187255859375,2.433865785598755
1758447390214656800,6.56865673828125,-1.1025726795196533,-1.485542893409729,2.3853750228881836
1758447390224628700,6.578628662109375,-1.4650086164474487,-1.1470980644226074,2.38600492477417
1758447390234600700,6.5886005859375,-1.9006199836730957,-0.850051999092102,2.347641706466675
1758447390244572700,6.59857275390625,-2.2556118965148926,-0.5376682281494141,2.0968990325927734
1758447390254545700,6.608545654296875,-2.3523261547088623,0.11805526912212372,1.3571996688842773
1758447390264518000,6.618517822265625,-2.3055763244628906,0.5339619517326355,0.43482017517089844
1758447390274489600,6.628489501953125,-2.172058343887329,0.746136486530304,-0.22580543160438538
1758447390284462600,6.638462646484375,-1.9492887258529663,0.7871143221855164,-0.46280625462532043
1758447390294434800,6.648434814453125,-1.7204214334487915,0.5203238725662231,-0.41119128465652466
1758447390304406500,6.658406494140625,-1.3289594650268555,0.23544128239154816,-0.5607889890670776
1758447390314378800,6.668378662109375,-0.7754621505737305,-0.006493585649877787,-0.8967225551605225
1758447390324351700,6.678351806640625,-0.33548611402511597,-0.19986863434314728,-0.9422335624694824
1758447390334323700,6.68832373046875,0.07354319095611572,-0.4545627236366272,-0.7452696561813354
1758447390344295700,6.698295654296875,-0.22788456082344055,-0.5300958156585693,-0.3125307261943817
1758447390354268700,6.7082685546875,-0.5290707945823669,-0.7930872440338135,-0.09212353825569153
1758447390364240600,6.71824072265625,-0.5311459302902222,-0.9605771899223328,-0.05657965689897537
1758447390374212900,6.728212890625,-0.31671401858329773,-0.8148540258407593,-0.0006998787284828722
1758447390384184800,6.738184814453125,-0.22338329255580902,-0.5580917596817017,-0.16622360050678253
1758447390394157600,6.748157470703125,-0.05801403522491455,-0.3059242367744446,-0.34195467829704285
1758447390404129800,6.7581298828125,0.03955167159438133,-0.24165897071361542,-0.19635885953903198
1758447390414101800,6.768101806640625,0.3006666302680969,-0.4864351451396942,-0.2388322800397873
1758447390424073700,6.77807373046875,0.6091805100440979,-0.752632737159729,0.04386385902762413
1758447390434046700,6.788046630859375,1.2344765663146973,-1.2813628911972046,0.3377316892147064
1758447390444019000,6.79801904296875,1.4723355770111084,-1.6549739837646484,0.5696485638618469
1758447390453990700,6.80799072265625,1.503224492073059,-1.7095509767532349,0.6442588567733765
1758447390463963600,6.817963623046875,1.4908863306045532,-1.8110052347183228,0.639954686164856
1758447390473936000,6.827935791015625,1.4171737432479858,-1.6591951847076416,0.648929238319397
1758447390483907600,6.837907470703125,1.4263800382614136,-1.1931313276290894,0.5038482546806335
1758447390493879800,6.8478798828125,1.471024990081787,-0.7460312843322754,0.2300795465707779
1758447390503852800,6.857852783203125,1.8960918188095093,0.030908115208148956,-0.36635881662368774
1758447390513824800,6.86782470703125,2.312767744064331,0.4462304711341858,-1.083038091659546
1758447390523796700,6.877796630859375,2.326140880584717,0.6909957528114319,-1.4526039361953735
1758447390533769700,6.887769775390625,1.934970498085022,1.0788403749465942,-1.3493515253067017
1758447390543741700,6.89774169921875,1.5053774118423462,1.5628914833068848,-1.116258144378662
1758447390553714000,6.9077138671875,1.1791532039642334,1.7764983177185059,-0.8078927993774414
1758447390563685600,6.917685546875,0.9589084386825562,1.7374244928359985,-0.5072834491729736
1758447390573658600,6.92765869140625,0.8967995047569275,1.5928603410720825,-0.4617631137371063
1758447390583630800,6.937630859375,1.0321555137634277,1.4319454431533813,-0.7887923717498779
1758447390593602600,6.9476025390625,1.3961193561553955,0.897807240486145,-1.1846001148223877
1758447390603575800,6.957575927734375,1.8027293682098389,0.20750819146633148,-1.4555370807647705
1758447390613547800,6.9675478515625,2.100443124771118,-0.3834592401981354,-1.5810835361480713
1758447390623519700,6.977519775390625,2.184718370437622,-1.0494047403335571,-1.5448451042175293
1758447390633491700,6.98749169921875,2.1658990383148193,-1.6682754755020142,-1.4268779754638672
1758447390643464700,6.997464599609375,2.2599828243255615,-1.9637422561645508,-1.2950308322906494
1758447390653436700,7.007436767578125,2.479722023010254,-1.8657816648483276,-1.1543428897857666
1758447390663408600,7.01740869140625,2.7550265789031982,-1.4781824350357056,-1.035940408706665
1758447390673382000,7.0273818359375,3.0236942768096924,-1.01040780544281,-0.9165753722190857
1758447390683353600,7.037353515625,3.271812677383423,-0.6010754704475403,-0.7879955172538757
1758447390693325800,7.047325927734375,3.4446113109588623,-0.07712621241807938,-0.6154365539550781
1758447390703297800,7.0572978515625,3.508464813232422,0.6363263726234436,-0.33247435092926025
1758447390713270800,7.067270751953125,3.571922540664673,1.018180251121521,0.026509903371334076
1758447390723242800,7.07724267578125,3.684556007385254,0.9428375959396362,0.3480234742164612
1758447390733215000,7.087215087890625,3.745579719543457,0.8326029777526855,0.5721218585968018
1758447390743187700,7.097187744140625,3.6294500827789307,0.9157884120941162,0.6747981309890747
1758447390753159400,7.107159423828125,3.291774034500122,0.8247053623199463,0.6587539315223694
1758447390763131600,7.117131591796875,2.8491828441619873,0.42498138546943665,0.5754547715187073
1758447390773103400,7.127103271484375,2.3819711208343506,0.04098551720380783,0.48975399136543274
1758447390783076600,7.13707666015625,1.8855262994766235,-0.09379919618368149,0.40556028485298157
1758447390793048600,7.147048583984375,1.2801929712295532,-0.0734206885099411,0.28892555832862854
1758447390803020500,7.1570205078125,0.8421554565429688,-0.08659667521715164,0.15980377793312073
1758447390812993500,7.16699365234375,0.5549295544624329,-0.10615679621696472,0.006929545197635889
1758447390822965500,7.176965576171875,0.4481008052825928,-0.05276387929916382,-0.03803180530667305
1758447390832937500,7.1869375,0.5598798394203186,0.019001387059688568,0.03635374829173088
1758447390842909700,7.19690966796875,0.8043912649154663,0.08045037090778351,0.18419061601161957
1758447390852882700,7.206882568359375,1.0586243867874146,0.062373895198106766,0.31716784834861755
1758447390862854400,7.2168544921875,1.3601038455963135,0.010713630355894566,0.3898846507072449
1758447390872826600,7.22682666015625,1.7400093078613281,0.000984570593573153,0.4410303831100464
1758447390882798600,7.236798583984375,2.228209972381592,0.06419389694929123,0.5113831162452698
1758447390892771600,7.246771484375,2.6400837898254395,0.14965713024139404,0.5531162023544312
1758447390902743600,7.25674365234375,2.947509527206421,0.2514095902442932,0.5343853831291199
1758447390912715800,7.2667158203125,3.1665287017822266,0.3324146866798401,0.4677421748638153
1758447390922688500,7.2766884765625,3.325516700744629,0.42189958691596985,0.3809329569339752
1758447390932660500,7.286660400390625,3.4325008392333984,0.5355284214019775,0.27314552664756775
1758447390942632700,7.2966328125,3.504986524581909,0.5295714139938354,0.16443422436714172
1758447390952604400,7.3066044921875,3.5686445236206055,0.46985486149787903,0.06890476495027542
1758447390962577700,7.31657763671875,3.615844964981079,0.3749573528766632,0.0205106008797884
1758447390972549600,7.326549560546875,3.6499862670898438,0.004979312419891357,-0.006086654495447874
1758447390982521600,7.336521484375,4.6508708000183105,-0.8589083552360535,0.09571374207735062
1758447390992494600,7.34649462890625,6.589326858520508,-2.344717502593994,0.0842653438448906
1758447391002466600,7.356466552734375,8.747594833374023,-3.5234174728393555,0.1418900191783905
1758447391012438500,7.3664384765625,9.003790855407715,-5.11290168762207,-0.19926010072231293
1758447391022410800,7.37641064453125,7.072680473327637,-7.415145397186279,-0.9928195476531982
1758447391032383700,7.3863837890625,4.174504280090332,-9.414894104003906,-1.7218862771987915
1758447391042355500,7.39635546875,1.616887092590332,-9.901335716247559,-2.1974239349365234
1758447391052327700,7.40632763671875,-0.17127294838428497,-9.243341445922852,-2.368391752243042
1758447391062300700,7.41630078125,-0.82331782579422,-7.874989986419678,-2.092302083969116
1758447391072272600,7.426272705078125,-0.8281069993972778,-6.001723766326904,-1.3594257831573486
1758447391082244600,7.43624462890625,-0.6928306818008423,-3.885617733001709,-0.27823907136917114
1758447391092216600,7.446216552734375,-0.6330631971359253,-1.8064016103744507,0.9252886772155762
1758447391102189600,7.456189453125,-0.661030650138855,0.04464709758758545,1.7186675071716309
1758447391112161500,7.46616162109375,-0.7395318746566772,1.6978434324264526,2.0567901134490967
1758447391122133500,7.476133544921875,-0.7759000062942505,3.1992790699005127,2.043226957321167
1758447391132106500,7.4861064453125,-0.7251505255699158,4.1490302085876465,1.725067377090454
1758447391142078700,7.49607861328125,-0.6343540549278259,4.415745735168457,1.1131733655929565
1758447391152050400,7.506050537109375,-0.5162106156349182,4.235225200653076,0.45101431012153625
1758447391162022700,7.516022705078125,-0.37405481934547424,3.7328131198883057,-0.08271431922912598
1758447391171995600,7.52599560546875,-0.24550803005695343,3.0646438598632812,-0.4614240825176239
1758447391181967600,7.535967529296875,-0.13559697568416595,2.3945095539093018,-0.6826507449150085
1758447391191939600,7.545939697265625,-0.02472718432545662,1.8346627950668335,-0.804405689239502
1758447391201912600,7.55591259765625,0.056361809372901917,1.3993515968322754,-0.8539910912513733
1758447391211884500,7.565884521484375,0.09759259968996048,1.0769813060760498,-0.8247902989387512
1758447391221856500,7.5758564453125,0.12309157103300095,0.8523670434951782,-0.7188358902931213
1758447391231828700,7.585828857421875,0.13346804678440094,0.6587419509887695,-0.5807352662086487
1758447391241801500,7.595801513671875,0.13071326911449432,0.4733257591724396,-0.44751226902008057
1758447391251773700,7.605773681640625,0.12380343675613403,0.3157222867012024,-0.3240792751312256
1758447391261745700,7.61574560546875,0.11202587187290192,0.18541406095027924,-0.2194942682981491
1758447391271718400,7.625718505859375,0.10101183503866196,0.07453574985265732,-0.14958177506923676
1758447391281690600,7.635690673828125,0.08188767731189728,0.02504037134349346,-0.13327230513095856
1758447391291662600,7.64566259765625,0.08584992587566376,-0.030314229428768158,-0.1273190677165985
1758447391301634600,7.655634521484375,0.10585106164216995,-0.08884678035974503,-0.09925228357315063
1758447391311607600,7.665607666015625,0.07745537906885147,-0.1372137814760208,-0.013137639500200748
1758447391321579800,7.675579833984375,0.0409943051636219,-0.14905472099781036,0.11548611521720886
1758447391331551500,7.685551513671875,0.03217844292521477,-0.1131124421954155,0.2416381984949112
1758447391341524500,7.6955244140625,0.01884479448199272,-0.08002159744501114,0.32936030626296997
1758447391351496700,7.70549658203125,0.007838482037186623,-0.05618630722165108,0.3505266010761261
1758447391361468700,7.71546875,-0.001800030586309731,-0.05857303366065025,0.3186165988445282
1758447391371440600,7.725440673828125,-0.009281649254262447,-0.08732664585113525,0.28679901361465454
1758447391381413600,7.73541357421875,-0.019721772521734238,-0.15258075296878815,0.2869526743888855
1758447391391385600,7.745385498046875,-0.03801369294524193,-0.245687797665596,0.3127768039703369
1758447391401357600,7.755357666015625,-0.0528821237385273,-0.3342496156692505,0.3279520273208618
1758447391411329500,7.76532958984375,-0.04994305968284607,-0.380984902381897,0.308692067861557
1758447391421302500,7.775302490234375,-0.03189002349972725,-0.3849564790725708,0.24756239354610443
1758447391431274800,7.785274658203125,-0.004811000544577837,-0.3954210877418518,0.1417667269706726
1758447391441246500,7.79524658203125,-0.00019574233738239855,-0.3535812497138977,0.06221277266740799
1758447391451219500,7.805219482421875,0.0108284130692482,-0.24012817442417145,0.06415874511003494
1758447391461191700,7.815191650390625,0.01648230478167534,-0.12518428266048431,0.07619942724704742
1758447391471163400,7.825163330078125,0.014628477394580841,-0.02599138766527176,0.06278455257415771
1758447391481135600,7.835135498046875,0.017375528812408447,0.0465744249522686,0.02798316441476345
1758447391491108600,7.845108642578125,0.02100568264722824,0.07796723395586014,-0.013341371901333332
1758447391501080600,7.85508056640625,0.026747990399599075,0.07574935257434845,-0.05284137651324272
1758447391511052500,7.865052490234375,0.02509470097720623,0.040649693459272385,-0.08584833145141602
1758447391521025500,7.875025634765625,0.024985510855913162,-0.010268083773553371,-0.1100093275308609
1758447391530997500,7.88499755859375,0.016343818977475166,-0.054247260093688965,-0.12843680381774902
1758447391540969700,7.8949697265625,0.003156378399580717,-0.07786364108324051,-0.14105352759361267
1758447391550941400,7.90494140625,-0.010132795199751854,-0.06959665566682816,-0.1493639200925827
1758447391560914400,7.91491455078125,-0.02353036031126976,-0.03977111354470253,-0.14696387946605682
1758447391570886700,7.92488671875,-0.024213727563619614,0.006668022833764553,-0.13137106597423553
1758447391580858400,7.9348583984375,-0.0285877026617527,0.05331674963235855,-0.10961490869522095
1758447391590831600,7.94483154296875,-0.02822284959256649,0.09201887249946594,-0.09147292375564575
1758447391600803600,7.954803466796875,-0.02370852418243885,0.10298923403024673,-0.0850222185254097
1758447391610775600,7.964775634765625,-0.018309764564037323,0.10429205000400543,-0.07479088753461838
1758447391620747500,7.97474755859375,-0.008970857597887516,0.10390376299619675,-0.0708020031452179
1758447391630720500,7.984720458984375,-0.03158722072839737,0.0663720965385437,-0.09660536795854568
1758447391640692500,7.9946923828125,-0.07267607003450394,0.021866150200366974,-0.11512499302625656
1758447391650664400,8.00466455078125,-0.01360395923256874,0.06843418627977371,-0.06734415143728256
1758447391660637700,8.0146376953125,0.08339928835630417,0.17724934220314026,0.018553709611296654
1758447391670609400,8.024609375,0.15249499678611755,0.294018030166626,0.10177456587553024
1758447391680581600,8.03458154296875,0.14535772800445557,0.3408265709877014,0.14449672400951385
1758447391690553600,8.0445537109375,0.09036505222320557,0.2947789132595062,0.14994049072265625
1758447391700526600,8.054526611328125,0.06304048746824265,0.17909358441829681,0.11911121010780334
1758447391710498600,8.06449853515625,0.04502739757299423,0.02263420633971691,0.07389046996831894
1758447391720470800,8.074470703125,0.05035824701189995,-0.1408223658800125,0.049022138118743896
1758447391730443500,8.084443603515625,0.04933053255081177,-0.25206154584884644,0.04561622068285942
1758447391740415500,8.09441552734375,0.02039502002298832,-0.29341110587120056,0.04187155142426491
1758447391750387700,8.1043876953125,-0.014154701493680477,-0.2552914321422577,0.044981323182582855
1758447391760359700,8.114359619140625,-0.050930559635162354,-0.13142061233520508,0.06172168627381325
1758447391770333000,8.1243330078125,-0.10504785925149918,0.039388153702020645,0.08699508756399155
1758447391780305000,8.134304931640624,-0.15371552109718323,0.2058359831571579,0.1038997694849968
1758447391790276900,8.14427685546875,-0.18068669736385345,0.3292846977710724,0.09997852891683578
1758447391800249900,8.154249755859375,-0.18448622524738312,0.39658409357070923,0.07528969645500183
1758447391810221800,8.164221923828125,-0.17233821749687195,0.412442147731781,0.04153412580490112
1758447391820193800,8.17419384765625,-0.1484033167362213,0.39004844427108765,0.004600078333169222
1758447391830165800,8.184165771484375,-0.11414282023906708,0.330547034740448,-0.03560619801282883
1758447391840139000,8.194138916015625,-0.07139482349157333,0.24102166295051575,-0.07610435783863068
1758447391850110700,8.20411083984375,-0.022276276722550392,0.1395168900489807,-0.10913527756929398
1758447391860083000,8.2140830078125,0.026505909860134125,0.04363562911748886,-0.12896330654621124
1758447391870055000,8.224054931640625,0.07062304019927979,-0.029755232855677605,-0.13194525241851807
1758447391880027600,8.234027587890624,0.10725454986095428,-0.07498502731323242,-0.124759241938591
1758447391890000000,8.243999755859376,0.14335769414901733,-0.08410821855068207,-0.10775922238826752
1758447391899971800,8.253971923828125,0.17139199376106262,-0.07005764544010162,-0.08003278076648712
1758447391909944800,8.26394482421875,0.16771097481250763,-0.059475578367710114,-0.05019525811076164
1758447391919916800,8.273916748046876,0.14315955340862274,-0.07485293596982956,-0.013084109872579575
1758447391929889000,8.283888916015625,0.10576531291007996,-0.11869655549526215,0.02839755266904831
1758447391939860700,8.29386083984375,0.06349775195121765,-0.17730340361595154,0.07320524007081985
1758447391949834000,8.303833984375,0.021926870569586754,-0.22684432566165924,0.11739613115787506
1758447391959806000,8.313805908203125,-0.016268985345959663,-0.24721884727478027,0.14903156459331512
1758447391969778000,8.32377783203125,-0.05663744732737541,-0.2249431014060974,0.17428205907344818
1758447391979751000,8.3337509765625,-0.08693782985210419,-0.15329287946224213,0.19036994874477386
1758447391989723000,8.343722900390626,-0.10680580884218216,-0.04567853733897209,0.19516628980636597
1758447391999694800,8.35369482421875,-0.1130858063697815,0.06625252217054367,0.18622127175331116
1758447392009666800,8.363666748046874,-0.10382387042045593,0.1476626992225647,0.15916168689727783
1758447392019640000,8.37364013671875,-0.08170071989297867,0.18290004134178162,0.12103427946567535
1758447392029611800,8.38361181640625,-0.05080219358205795,0.16692399978637695,0.06796839833259583
1758447392039584000,8.393583984375,-0.020293021574616432,0.10505904257297516,0.003680222202092409
1758447392049557000,8.403556884765624,0.0075545888394117355,0.02251409739255905,-0.05673172324895859
1758447392059528700,8.41352880859375,0.026766100898385048,-0.051415521651506424,-0.10604201257228851
1758447392069501000,8.4235009765625,0.038542333990335464,-0.094863660633564,-0.13032791018486023
1758447392079473000,8.433472900390624,0.039504799991846085,-0.11528558284044266,-0.12624874711036682
1758447392089446000,8.44344580078125,0.032702021300792694,-0.1079363226890564,-0.10162942111492157
1758447392099417900,8.45341796875,0.018665829673409462,-0.0771176889538765,-0.07013727724552155
1758447392109389800,8.463389892578125,0.0044112601317465305,-0.028654014691710472,-0.0419306717813015
1758447392119362800,8.47336279296875,-0.012034025974571705,0.023430757224559784,-0.01888767071068287
1758447392129335000,8.4833349609375,-0.029566414654254913,0.06864084303379059,0.010064885020256042
1758447392139306800,8.493306640625,-0.04646630212664604,0.0909285768866539,0.041128262877464294
1758447392149279000,8.503279052734374,-0.05444486439228058,0.08436094969511032,0.06935883313417435
1758447392159252000,8.513251953125,-0.05644463375210762,0.0593181848526001,0.08655433356761932
1758447392169223700,8.5232236328125,-0.04668867588043213,0.042151715606451035,0.08869045227766037
1758447392179196000,8.53319580078125,-0.03214621916413307,0.03850291669368744,0.07178790122270584
1758447392189169000,8.5431689453125,-0.016152869910001755,0.0458495132625103,0.04524604231119156
1758447392199140900,8.553140869140625,0.0006564692012034357,0.056292299181222916,0.013370133936405182
1758447392209112800,8.56311279296875,0.015633022412657738,0.06961476057767868,-0.01829831302165985
1758447392219085000,8.5730849609375,0.03015364147722721,0.08182216435670853,-0.0336541011929512
1758447392229057800,8.583057861328125,0.0368400402367115,0.0950452908873558,-0.039210520684719086
1758447392239029800,8.59302978515625,0.03948429226875305,0.10217829793691635,-0.03622112050652504
1758447392249002000,8.603001953125,0.03822435066103935,0.09312861412763596,-0.028858812525868416
1758447392258974700,8.612974609375,0.034324683248996735,0.07042782753705978,-0.02540256269276142
1758447392268947000,8.622947021484375,0.021618742495775223,0.04957394301891327,-0.01642238348722458
1758447392278919000,8.6329189453125,0.007300523575395346,0.032883379608392715,-0.004598213825374842
1758447392288891000,8.642890869140626,-0.007105047348886728,0.02388828806579113,0.015607988461852074
1758447392298863900,8.65286376953125,-0.0185885988175869,0.020502079278230667,0.04025021567940712
1758447392308836000,8.662836181640625,-0.02540149725973606,0.015261776745319366,0.06903259456157684
1758447392318807800,8.672807861328126,-0.027270503342151642,0.007871771231293678,0.09219490736722946
1758447392328780800,8.68278076171875,-0.03050437942147255,-0.009157013148069382,0.1038433089852333
1758447392338753000,8.6927529296875,-0.03159787505865097,-0.024821193888783455,0.11094862222671509
1758447392348724700,8.702724853515624,-0.02828330360352993,-0.0342373326420784,0.10627184808254242
1758447392358697000,8.712697021484376,-0.021649101749062538,-0.0313723050057888,0.09168624132871628
1758447392368670000,8.722669921875,-0.009863017126917839,-0.020564397796988487,0.0774681568145752
1758447392378642000,8.732641845703125,0.002299373270943761,-0.016647152602672577,0.05686967447400093
1758447392388614000,8.74261376953125,0.012626579031348228,-0.021278923377394676,0.031919848173856735
1758447392398587000,8.7525869140625,0.01822907105088234,-0.01847621239721775,0.0009912285022437572
1758447392408558800,8.762558837890625,0.02263713628053665,0.0011241203173995018,-0.03543255850672722
1758447392418530800,8.77253076171875,0.023446204140782356,0.03635268285870552,-0.062299326062202454
1758447392428502800,8.782502685546875,0.018821358680725098,0.06907626986503601,-0.0777435302734375
1758447392438475800,8.792475830078125,0.014276674017310143,0.08532022684812546,-0.07281827926635742
1758447392448448000,8.802447998046874,0.012766927480697632,0.07914328575134277,-0.05613810196518898
1758447392458419700,8.812419677734376,0.011272361502051353,0.0573466457426548,-0.031433023512363434
1758447392468393000,8.82239306640625,0.0012964267516508698,0.02810673601925373,-0.013100355863571167
1758447392478365000,8.832364990234375,-0.011766910552978516,0.015851667150855064,0.00018562232435215265
1758447392488337000,8.8423369140625,-0.022357236593961716,0.013549097813665867,0.009108543395996094
1758447392498308900,8.852308837890625,-0.024813737720251083,0.011845740489661694,0.016143282875418663
1758447392508281900,8.86228173828125,-0.01931857131421566,0.013758156448602676,0.02328881062567234
1758447392518253800,8.87225390625,-0.016821857541799545,0.016264190897345543,0.029397036880254745
1758447392528225800,8.882225830078125,-0.023747406899929047,0.01769297756254673,0.02931074984371662
1758447392538199000,8.892198974609375,-0.02359667234122753,0.015391472727060318,0.02869955450296402
1758447392548170800,8.902170654296874,-0.02280278317630291,0.0027539748698472977,0.025886457413434982
1758447392558143000,8.91214306640625,-0.01522715575993061,-0.007133543025702238,0.02821246348321438
1758447392568114700,8.92211474609375,-0.007355118170380592,0.003041063668206334,0.02653360553085804
1758447392578087700,8.932087646484375,0.004691690672188997,0.014928349293768406,0.02310265600681305
1758447392588060000,8.942059814453126,0.016864467412233353,0.01665913686156273,0.013058277778327465
1758447392598032000,8.952031982421875,0.021220600232481956,0.009661681950092316,-0.0008183894096873701
1758447392608003800,8.96200390625,0.018025871366262436,0.013703028671443462,-0.017284180968999863
1758447392617976800,8.971976806640624,0.013373862020671368,0.03195899724960327,-0.02509283646941185
1758447392627948800,8.98194873046875,0.011184210889041424,0.054545801132917404,-0.0246100053191185
1758447392637920800,8.991920654296875,0.007517038378864527,0.0759059488773346,-0.020315391942858696
1758447392647894000,9.00189404296875,0.0011014834744855762,0.08457906544208527,-0.010327472351491451
1758447392657865700,9.01186572265625,-0.002065015025436878,0.07548730075359344,-0.0028628981672227383
1758447392667838000,9.021837890625,-0.005991845857352018,0.05468721315264702,0.003206712193787098
1758447392677810000,9.031809814453124,-0.008159925229847431,0.030193854123353958,0.015277223661541939
1758447392687782700,9.04178271484375,-0.011834022589027882,0.003019758267328143,0.029089974239468575
1758447392697755000,9.0517548828125,-0.01239355280995369,-0.026316825300455093,0.04097326472401619
1758447392707726800,9.061726806640625,-0.011950668878853321,-0.058456916362047195,0.048886850476264954
1758447392717699800,9.071699951171874,-0.010053965263068676,-0.08742465078830719,0.0496855303645134
1758447392727671800,9.081671875,-0.006155630573630333,-0.09353714436292648,0.04243161156773567
1758447392737644000,9.09164404296875,0.0010189254535362124,-0.06926961988210678,0.029521940276026726
1758447392747615700,9.10161572265625,0.0029414615128189325,-0.024382038041949272,0.01281752809882164
1758447392757589000,9.111589111328126,0.005720470100641251,0.025597771629691124,-0.0046301716938614845
1758447392767561200,9.121561279296875,0.005684517323970795,0.04428011178970337,-0.015175224281847477
1758447392777533000,9.131532958984375,0.0035081820096820593,0.02484862506389618,-0.020680511370301247
1758447392787506200,9.141506103515624,0.0010402307379990816,-0.005648830905556679,-0.024403342977166176
1758447392797478100,9.15147802734375,-0.004592887591570616,-0.013177054934203625,-0.03386928513646126
1758447392807450000,9.1614501953125,-0.010566091164946556,0.015387744642794132,-0.037340715527534485
1758447392817422000,9.171422119140624,-0.011060373857617378,0.05820897966623306,-0.03236566111445427
1758447392827395000,9.18139501953125,-0.010747453197836876,0.09108996391296387,-0.020246682688593864
1758447392837367000,9.191366943359375,-0.004588892683386803,0.09392835944890976,-0.004093545023351908
1758447392847339300,9.20133935546875,-0.0001776328426785767,0.06149744987487793,0.00888084340840578
1758447392857312000,9.21131201171875,0.003358512418344617,0.013684652745723724,0.018455972895026207
1758447392867284000,9.221283935546875,0.006810235325247049,-0.02172899805009365,0.02056972309947014
1758447392877256200,9.231256103515625,0.008162588812410831,-0.030852453783154488,0.01654808409512043
1758447392887229000,9.24122900390625,0.007019826211035252,-0.02407151460647583,0.021675467491149902
1758447392897201200,9.251201171875,0.0012602078495547175,-0.0173193346709013,0.03347593545913696
1758447392907173000,9.261173095703125,-0.0010844392236322165,-0.019875437021255493,0.04742290824651718
1758447392917145000,9.27114501953125,-0.0037758296821266413,-0.021634988486766815,0.053643785417079926
1758447392927118000,9.2811181640625,-0.006609965581446886,-0.016883641481399536,0.05157531052827835
1758447392937090000,9.291090087890625,-0.006641657557338476,-0.0015733955660834908,0.03734816983342171
1758447392947062000,9.30106201171875,-0.008039018139243126,0.020807277411222458,0.018983811140060425
1758447392957034000,9.311033935546876,-0.009157545864582062,0.039922382682561874,0.0023284016642719507
1758447392967007200,9.32100732421875,-0.0035843485966324806,0.05072762444615364,-0.004848817363381386
1758447392976979000,9.33097900390625,0.0007187871960923076,0.05192897841334343,-0.0056712012737989426
1758447392986951200,9.340951171875,0.0007584682898595929,0.046179212629795074,-0.006962568499147892
1758447392996924200,9.350924072265625,-0.0011978897964581847,0.049609098583459854,-0.010014018043875694
1758447393006896000,9.360896240234375,-0.004890895448625088,0.06422080099582672,-0.010801514610648155
1758447393016868000,9.3708681640625,-0.007961519993841648,0.09002336859703064,-0.0037473340053111315
1758447393026840000,9.380840087890626,-0.0075785573571920395,0.10734829306602478,0.017251424491405487
1758447393036813000,9.39081298828125,-0.010014550760388374,0.10327073186635971,0.04403190687298775
1758447393046785000,9.400784912109375,-0.012943761423230171,0.07423295080661774,0.06333023309707642
1758447393056757000,9.410757080078126,-0.011375426314771175,0.03681713715195656,0.059533100575208664
1758447393066730000,9.42072998046875,-0.0047031426802277565,0.0024407871533185244,0.03801848739385605
1758447393076702200,9.4307021484375,0.0017126789316534996,-0.014689996838569641,0.011092065833508968
1758447393086674000,9.440673828125,0.00487172044813633,-0.020974524319171906,-0.007020092569291592
1758447393096646100,9.450646240234375,0.007337541319429874,-0.021462148055434227,-0.012679309584200382
1758447393106619100,9.460619140625,0.005952431354671717,-0.022591061890125275,-0.005055745132267475
1758447393116591000,9.470591064453124,0.002555036684498191,-0.020294619724154472,-0.0031334753148257732
1758447393126563000,9.48056298828125,-0.0035539884120225906,-0.00515827676281333,-0.004494084510952234
1758447393136536000,9.4905361328125,-0.009350092150270939,0.018137725070118904,-0.01432434469461441
1758447393146508000,9.500508056640625,-0.01477628294378519,0.04374827817082405,-0.01950552500784397
1758447393156480000,9.51047998046875,-0.01581970974802971,0.05531518533825874,-0.017009610310196877
1758447393166452200,9.5204521484375,-0.014849253930151463,0.042819634079933167,-0.008353004232048988
1758447393176425000,9.530425048828125,-0.012309396639466286,0.01130751520395279,0.0022301310673356056
1758447393186397200,9.540397216796874,-0.009473662823438644,-0.02232394739985466,0.0035454663448035717
1758447393196369200,9.550369140625,-0.0034179009962826967,-0.045999716967344284,-0.0023281353060156107
1758447393206342000,9.560341796875,0.003572896821424365,-0.05998477339744568,-0.008291485719382763
1758447393216314000,9.570314208984374,0.007995874620974064,-0.07288645952939987,-0.00917379092425108
1758447393226286000,9.5802861328125,0.011569570749998093,-0.0864906832575798,-0.00446825148537755
1758447393236258000,9.590258056640625,0.008244880475103855,-0.09238506108522415,-0.00008788431296125054
1758447393246231000,9.60023095703125,0.001573928166180849,-0.08297531306743622,0.0011113371001556516
1758447393256203300,9.610203369140624,-0.004816060420125723,-0.05657326430082321,0.0013086773687973619
1758447393266175000,9.620175048828125,-0.012459066696465015,-0.021338045597076416,0.0007563377148471773
1758447393276148000,9.63014794921875,-0.017552895471453667,0.011451059952378273,0.004954278469085693
1758447393286120200,9.6401201171875,-0.017297497019171715,0.027783161029219627,0.011999937705695629
1758447393296092200,9.650092041015625,-0.01497921533882618,0.02358495444059372,0.01786634884774685
1758447393306064100,9.660064208984375,-0.010412161238491535,0.006938599981367588,0.0197454746812582
1758447393316037000,9.670037109375,-0.005835252348333597,-0.01257864199578762,0.01834864728152752
1758447393326009000,9.680009033203126,0.000603738590143621,-0.02780286967754364,0.008363923989236355
1758447393335981000,9.68998095703125,0.0022093583829700947,-0.03713218867778778,-0.0002918824611697346
1758447393345954300,9.699954345703125,0.006329801399260759,-0.04202095419168472,-0.00395585922524333
1758447393355926000,9.709926025390626,0.007127950433641672,-0.041904572397470474,-0.0013789847726002336
1758447393365898200,9.719898193359375,0.0065282066352665424,-0.03465704619884491,0.0034501252230256796
1758447393375870000,9.729869873046875,0.005940979812294245,-0.025112809613347054,0.003448793664574623
1758447393385843000,9.739843017578124,0.0020208065398037434,-0.013141901232302189,-0.000824248360004276
1758447393395815200,9.749815185546876,-0.0020961740519851446,0.0003025351034011692,-0.007843541912734509
1758447393405787000,9.759786865234375,-0.00646642129868269,0.014013553969562054,-0.014657239429652691
1758447393415760100,9.769760009765625,-0.010896589607000351,0.022059496492147446,-0.019105251878499985
1758447393425732000,9.779732177734376,-0.013315272517502308,0.026327744126319885,-0.021205686032772064
1758447393435704000,9.7897041015625,-0.013331783935427666,0.022999858483672142,-0.01968422159552574
1758447393445676000,9.799676025390625,-0.01122016366571188,0.014001569710671902,-0.01732173189520836
1758447393455649000,9.80964892578125,-0.009690443985164165,0.0016016251174733043,-0.013430854305624962
1758447393465621000,9.81962109375,-0.0062581622041761875,-0.021638715639710426,-0.005693039391189814
1758447393475593200,9.82959326171875,-0.005362008698284626,-0.04982215166091919,-0.004848551005125046
1758447393485566200,9.839566162109374,-0.0032738239970058203,-0.07292427122592926,-0.0034650389570742846
1758447393495538000,9.849537841796876,-0.003108974313363433,-0.08021175116300583,-0.006394782569259405
1758447393505510100,9.85951025390625,-0.006561229936778545,-0.06475263088941574,-0.009210809133946896
1758447393515482000,9.869482177734374,-0.00941933412104845,-0.03412467986345291,-0.00986434891819954
1758447393525455000,9.879455078125,-0.014407968148589134,0.001805623178370297,-0.008915464393794537
1758447393535427000,9.889427001953125,-0.01865331269800663,0.03339897096157074,-0.0030682277865707874
1758447393545399300,9.8993994140625,-0.02015666663646698,0.056713346391916275,0.0021459751296788454
1758447393555372000,9.9093720703125,-0.021375063806772232,0.06252915412187576,0.003058906877413392
1758447393565344000,9.919343994140625,-0.022127673029899597,0.05553596466779709,-0.004445348400622606
1758447393575316200,9.929316162109375,-0.017121195793151855,0.04656563699245453,-0.014823953621089458
1758447393585288000,9.939287841796874,-0.009753295220434666,0.0452047623693943,-0.0218520350754261
1758447393595261200,9.94926123046875,-0.004050135146826506,0.05026476830244064,-0.0159416813403368
1758447393605233200,9.959233154296875,-0.0021920478902757168,0.04863171651959419,-0.0005872269975952804
1758447393615205000,9.969205078125,0.0005195827106945217,0.03629409149289131,0.017161943018436432
1758447393625178000,9.97917822265625,0.0016058861510828137,0.01823359914124012,0.021879199892282486
1758447393635150000,9.989150146484375,0.002576608443632722,0.013615677133202553,0.013761085458099842
1758447393645122000,9.9991220703125,0.004241084214299917,0.018917499110102654,0.0016924388473853469
1758447393655094300,10.00909423828125,0.00250603468157351,0.028436169028282166,-0.008447014726698399
1758447393665067300,10.0190673828125,-0.005051217507570982,0.03419419005513191,-0.009915747679769993
1758447393675039000,10.0290390625,-0.00899615790694952,0.03271640092134476,-0.0010772485984489322
1758447393685011200,10.03901123046875,-0.016559269279241562,0.025830797851085663,0.006060821935534477
1758447393694984200,10.048984130859376,-0.01882615126669407,0.01840883493423462,0.011874768882989883
1758447393704956200,10.0589560546875,-0.020182499662041664,0.015471634455025196,0.013891580514609814
1758447393714928000,10.06892822265625,-0.016269784420728683,0.016109194606542587,0.006116215605288744
1758447393724900000,10.078900146484376,-0.012888368219137192,0.01840750314295292,-0.005540173966437578
1758447393734873000,10.088873046875,-0.008568188175559044,0.015426892787218094,-0.015660718083381653
1758447393744845000,10.098844970703125,-0.009182579815387726,0.001439971150830388,-0.02082698419690132
1758447393754817000,10.108817138671874,-0.007838215678930283,-0.016584303230047226,-0.02281370386481285
1758447393764790000,10.1187900390625,-0.009331982582807541,-0.026629745960235596,-0.024177242070436478
1758447393774762000,10.128761962890625,-0.009735718369483948,-0.0246126689016819,-0.025078188627958298
1758447393784734000,10.13873388671875,-0.010386328212916851,-0.010854511521756649,-0.025788187980651855
1758447393794706200,10.1487060546875,-0.009707488119602203,0.0033633061684668064,-0.028449218720197678
1758447393804679000,10.158678955078125,-0.009052351117134094,0.010378871113061905,-0.03019705042243004
1758447393814651100,10.168651123046875,-0.007829959504306316,0.0009755159262567759,-0.02809102274477482
1758447393824623000,10.178623046875,-0.006687730085104704,-0.016741428524255753,-0.022286662831902504
1758447393834595800,10.188595947265625,-0.0065385932102799416,-0.031616780906915665,-0.017969146370887756
1758447393844568000,10.198568115234375,-0.009339972399175167,-0.03333372250199318,-0.009822803549468517
1758447393854540000,10.2085400390625,-0.010066748596727848,-0.024353543296456337,-0.00404614070430398
1758447393864512000,10.218511962890625,-0.00968431867659092,-0.014414358884096146,0.00347489258274436
1758447393874485000,10.228485107421875,-0.00836578756570816,-0.01016581803560257,0.013743242248892784
1758447393884457200,10.238457275390624,-0.0049617355689406395,-0.00962839275598526,0.021403558552265167
1758447393894429000,10.248428955078126,-0.0002772350562736392,-0.02316364273428917,0.019349463284015656
1758447393904402000,10.25840185546875,0.004759068600833416,-0.04427372291684151,0.01124865934252739
1758447393914374100,10.2683740234375,0.005154015496373177,-0.05969715118408203,0.001463406952098012
1758447393924345900,10.278345947265626,0.00213612150400877,-0.05727047845721245,-0.010724815540015697
1758447393934318000,10.288318115234375,-0.0016876452136784792,-0.03683018684387207,-0.019093001261353493
1758447393944291000,10.298291015625,-0.00896712951362133,-0.009664345532655716,-0.018936406821012497
1758447393954263000,10.308262939453124,-0.014768293127417564,0.011873170733451843,-0.009364473633468151
1758447393964235000,10.318235107421875,-0.019059712067246437,0.01756461337208748,-0.001900964416563511
1758447393974208000,10.3282080078125,-0.021577198058366776,0.015088938176631927,0.0014032195322215557
1758447393984180000,10.338179931640624,-0.021555891260504723,0.011994345113635063,-0.0041185785084962845
1758447393994152200,10.348152099609376,-0.022910641506314278,0.020081833004951477,-0.014387727715075016
1758447394004124000,10.3581240234375,-0.018994996324181557,0.03737187385559082,-0.019904466345906258
1758447394014097000,10.368096923828125,-0.017161410301923752,0.050030943006277084,-0.01768924854695797
1758447394024069000,10.378069091796876,-0.01461942307651043,0.045221541076898575,-0.008505071513354778
1758447394034040800,10.388040771484375,-0.00848749466240406,0.022903451696038246,0.0005336974863894284
1758447394044014000,10.39801416015625,-0.001276453142054379,-0.006843791343271732,0.004475974943488836
1758447394053986000,10.407986083984374,0.003936151973903179,-0.0334695428609848,0.0055031562224030495
1758447394063958000,10.4179580078125,0.00836765207350254,-0.04560796543955803,0.00424214918166399
1758447394073930000,10.427929931640625,0.007903196848928928,-0.05162431299686432,0.0009004147723317146
1758447394083903000,10.437903076171875,0.005154814571142197,-0.05185068026185036,0.0029784792568534613
1758447394093875000,10.447875,0.0012572783743962646,-0.049310293048620224,0.0027166905347257853
1758447394103847000,10.457846923828125,-0.0019648801535367966,-0.04312856122851372,-0.0010420948965474963
1758447394113820200,10.467820068359375,-0.005000085104256868,-0.030343258753418922,-0.0004442152567207813
1758447394123792000,10.4777919921875,-0.012146677821874619,-0.01731960102915764,0.0033188313245773315
1758447394133764000,10.48776416015625,-0.01835796795785427,-0.005764412228018045,0.0032088428270071745
1758447394143735800,10.49773583984375,-0.02051406353712082,0.006368683185428381,-0.0028969866689294577
1758447394153709000,10.507708984375,-0.013379987329244614,0.018442124128341675,-0.004010187927633524
1758447394163681000,10.517680908203126,-0.007248591631650925,0.021755894646048546,0.002037051832303405
1758447394173653000,10.527653076171875,-0.0037976677995175123,0.0020391824655234814,0.015140336938202381
1758447394183626000,10.5376259765625,0.00017230652156285942,-0.03346634656190872,0.022582540288567543
1758447394193598000,10.547597900390626,0.0011430287268012762,-0.06276138871908188,0.017915084958076477
1758447394203570000,10.55756982421875,-0.0019172097090631723,-0.07296688854694366,0.0033606430515646935
1758447394213543000,10.56754296875,-0.003319630166515708,-0.054063502699136734,-0.011571967042982578
1758447394223515100,10.57751513671875,-0.005982258822768927,-0.01817181333899498,-0.02093937061727047
1758447394233486800,10.58748681640625,-0.009432117454707623,0.013969345018267632,-0.015625830739736557
1758447394243459000,10.597458984375,-0.009900035336613655,0.02696770243346691,-0.001511876587755978
1758447394253432000,10.60743212890625,-0.009674465283751488,0.0168551467359066,0.010546384379267693
1758447394263403800,10.61740380859375,-0.006984938867390156,-0.0002836266648955643,0.014068148098886013
1758447394273376000,10.6273759765625,-0.0065742796286940575,-0.017796041443943977,0.005936984904110432
1758447394283349000,10.637348876953125,-0.005570800509303808,-0.02195829525589943,-0.005636580288410187
1758447394293321000,10.647321044921876,-0.001377919572405517,-0.01943495124578476,-0.01587909832596779
1758447394303293000,10.65729296875,0.0015707324491813779,-0.008168714120984077,-0.01763225719332695
1758447394313266000,10.667265869140625,0.004139084834605455,-0.00005699164830730297,-0.017297763377428055
1758447394323238000,10.67723779296875,0.005819805897772312,0.002276470186188817,-0.016758473590016365
1758447394333210000,10.687210205078125,0.006268814671784639,0.005651760380715132,-0.019517242908477783
1758447394343183000,10.69718310546875,0.00446905056014657,0.0065439194440841675,-0.023510651662945747
1758447394353154800,10.70715478515625,0.004942560568451881,0.00552392890676856,-0.023073626682162285
1758447394363127000,10.717126953125,0.0010423612548038363,0.0009723200928419828,-0.017945710569620132
1758447394373099000,10.72709912109375,-0.002603506203740835,-0.00808908510953188,-0.00881959032267332
1758447394383072000,10.737072021484375,-0.0102539686486125,-0.019750535488128662,0.0033489251509308815
1758447394393044000,10.7470439453125,-0.015680160373449326,-0.028019649907946587,0.011574630625545979
1758447394403016200,10.75701611328125,-0.020988905802369118,-0.02780340239405632,0.017133712768554688
1758447394412989000,10.766989013671875,-0.023086676374077797,-0.01829724758863449,0.01684262976050377
1758447394422961000,10.7769609375,-0.024628913030028343,-0.00222001108340919,0.017223196104168892
1758447394432933000,10.78693310546875,-0.02383103035390377,0.009462477639317513,0.015243135392665863
1758447394442905900,10.79690576171875,-0.022055501118302345,0.012388226576149464,0.008551144041121006
1758447394452878000,10.806878173828125,-0.016587233170866966,0.004505269695073366,-0.0020793962758034468
1758447394462850000,10.81685009765625,-0.010730142705142498,-0.006959106307476759,-0.00854421965777874
1758447394472822800,10.82682275390625,-0.005658418405801058,-0.012352007441222668,-0.015623168088495731
1758447394482795000,10.836794921875,-0.0024437166284769773,-0.011511513963341713,-0.01840377412736416
1758447394492767000,10.84676708984375,0.0006138586322776973,-0.004714061506092548,-0.015867646783590317
1758447394502739000,10.856739013671875,-0.002168612089008093,0.005246427375823259,-0.008382831700146198
1758447394512712000,10.8667119140625,-0.0034943337086588144,0.010224142111837864,-0.0023044333793222904
1758447394522684200,10.87668408203125,-0.0052237906493246555,0.0076097166165709496,0.005902363918721676
1758447394532655900,10.88665576171875,-0.008036088198423386,-0.0010138654615730047,0.010236924514174461
1758447394542629000,10.896629150390625,-0.008363657630980015,-0.01008059736341238,0.01353524997830391
1758447394552601000,10.90660107421875,-0.00815087091177702,-0.017366472631692886,0.012010590173304081
1758447394562573000,10.916572998046876,-0.010193515568971634,-0.016028234735131264,0.009397762827575207
1758447394572546000,10.926546142578125,-0.01113227941095829,-0.0070738885551691055,0.006067479960620403
1758447394582518000,10.93651806640625,-0.009946374222636223,-0.000010386328540334944,0.002523611532524228
1758447394592490000,10.946489990234374,-0.011057178489863873,0.002667954657226801,-0.00663526589050889
1758447394602463000,10.956462890625,-0.008568987250328064,0.004992361646145582,-0.020236296579241753
1758447394612435200,10.966435302734375,-0.009970609098672867,0.010416688397526741,-0.03424692153930664
1758447394622407000,10.976406982421874,-0.011745871976017952,0.0194325540214777,-0.03789332136511803
1758447394632380000,10.9863798828125,-0.01022973470389843,0.027696343138813972,-0.03834099695086479
1758447394642352000,10.99635205078125,-0.012513660825788975,0.03299150615930557,-0.0278521366417408
1758447394652323800,11.00632373046875,-0.012123242020606995,0.032037027180194855,-0.01962083950638771
1758447394662297000,11.016297119140624,-0.012197810225188732,0.026509372517466545,-0.012234029360115528
1758447394672269000,11.02626904296875,-0.009039834141731262,0.022544456645846367,-0.00965901929885149
1758447394682241000,11.036240966796875,-0.00697881355881691,0.021253889426589012,-0.0009986853692680597
1758447394692213000,11.046212890625,-0.0015129417879506946,0.016386430710554123,0.011169563978910446
1758447394702186000,11.05618603515625,0.002372077666223049,-0.0057135457172989845,0.022178538143634796
1758447394712158000,11.066157958984375,0.008202269673347473,-0.03391855210065842,0.02394474670290947
1758447394722130200,11.076130126953124,0.009093630127608776,-0.04638294503092766,0.0186621006578207
1758447394732103200,11.086103271484374,0.00805979035794735,-0.03611086681485176,0.008264588192105293
1758447394742075000,11.096074951171875,0.00549356872215867,-0.012237491086125374,0.005533782299607992
1758447394752047000,11.106047119140625,-0.002141447737812996,0.001306014135479927,0.010123740881681442
1758447394762019600,11.11601953125,-0.009884854778647423,0.003210174385458231,0.010970626026391983
1758447394771991800,11.12599169921875,-0.014533935114741325,0.0013856426812708378,0.009163138456642628
1758447394781963500,11.135963623046875,-0.013718741945922375,0.003204315435141325,0.008230232633650303
1758447394791936500,11.1459365234375,-0.010161557234823704,0.006139118690043688,0.009125321172177792
1758447394801908700,11.15590869140625,-0.007695204112678766,0.0029952572658658028,0.01107475534081459
1758447394811880700,11.165880615234375,-0.006523413117974997,-0.0016871124971657991,0.011896606534719467
1758447394821852700,11.175852783203124,-0.0034503915812820196,-0.0020727382507175207,0.010494719259440899
1758447394831825700,11.18582568359375,-0.0011677960865199566,0.00021784658019896597,0.0028993834275752306
1758447394841797600,11.195797607421875,0.0009861685102805495,-0.0019481023773550987,-0.005369465332478285
1758447394851769600,11.20576953125,0.001931058126501739,-0.007665909361094236,-0.013670804910361767
1758447394861742800,11.215742919921874,0.001306014135479927,-0.010012952610850334,-0.021261079236865044
1758447394871714600,11.225714599609375,-0.0010751180816441774,-0.007041930686682463,-0.02082778327167034
1758447394881686800,11.235686767578125,-0.004299940075725317,0.0033161682076752186,-0.01558109000325203
1758447394891659800,11.24565966796875,-0.006304767448455095,0.011068363673985004,-0.008227303624153137
1758447394901631500,11.255631591796876,-0.006925550289452076,0.007026217877864838,-0.002064748667180538
1758447394911603700,11.265603759765625,-0.009965282864868641,-0.004989165812730789,0.0013851100811734796
1758447394921576700,11.27557666015625,-0.0067718857899308205,-0.014033527113497257,-0.0011222560424357653
1758447394931548700,11.285548583984376,-0.005358546506613493,-0.016153402626514435,-0.0034346787724643946
1758447394941520600,11.295520751953125,-0.005218197591602802,-0.014275608584284782,-0.0034051176626235247
1758447394951493600,11.30549365234375,-0.0034314829390496016,-0.010820955969393253,0.0006114617572166026
1758447394961465600,11.315465576171874,-0.004346278961747885,-0.009661149233579636,0.005305016878992319
1758447394971437600,11.3254375,-0.0032812808640301228,-0.01335814967751503,0.010130131617188454
1758447394981409500,11.335409423828125,-0.0024738102219998837,-0.02149304188787937,0.013551761396229267
1758447394991382500,11.345382568359375,-0.004391552414745092,-0.029217539355158806,0.01575659215450287
1758447395001354800,11.355354736328126,-0.005409945268183947,-0.03215207904577255,0.017179785296320915
1758447395011326500,11.365326416015625,-0.004992628004401922,-0.03009105660021305,0.015244199894368649
1758447395021299700,11.3752998046875,-0.004863198380917311,-0.024941835552453995,0.011408715508878231
1758447395031271700,11.385271728515624,-0.007494668010622263,-0.013791712000966072,0.0059867859818041325
1758447395041243600,11.39524365234375,-0.005841644015163183,0.00043835630640387535,0.0003153182624373585
1758447395051216600,11.405216552734375,-0.00481339730322361,0.010555438697338104,-0.0046607982367277145
1758447395061188600,11.415188720703124,-0.005626194179058075,0.009150355122983456,-0.008649414405226707
1758447395071160600,11.42516064453125,-0.007305849809199572,-0.0005760417552664876,-0.012588229961693287
1758447395081133600,11.435133544921875,-0.00965529028326273,-0.010187390260398388,-0.018939603120088577
1758447395091105800,11.445105712890625,-0.01266812440007925,-0.004463457968086004,-0.028012193739414215
1758447395101077500,11.455077392578126,-0.01733797788619995,0.010911770164966583,-0.029075326398015022
1758447395111049700,11.4650498046875,-0.023614780977368355,0.02768196165561676,-0.02365712635219097
1758447395121022700,11.475022705078125,-0.02834615297615528,0.038012631237506866,-0.00869309064000845
1758447395130994400,11.484994384765624,-0.026102440431714058,0.0471041277050972,0.009214803576469421
1758447395140966700,11.494966552734375,-0.019813384860754013,0.04108591750264168,0.027965854853391647
1758447395150939600,11.504939697265625,-0.009859554469585419,0.016800550743937492,0.03714470565319061
1758447395160911600,11.51491162109375,0.0022056300658732653,-0.02196015976369381,0.03917589783668518
1758447395170883600,11.524883544921876,0.010686999186873436,-0.060378387570381165,0.03123222105205059
1758447395180856800,11.53485693359375,0.018454374745488167,-0.08742199093103409,0.024932248517870903
1758447395190828500,11.54482861328125,0.024863537400960922,-0.1028616651892662,0.023979367688298225
1758447395200800800,11.55480078125,0.030589334666728973,-0.11824887990951538,0.026339462026953697
1758447395210772500,11.5647724609375,0.034083135426044464,-0.12406149506568909,0.034877024590969086
1758447395220745500,11.574745361328125,0.030124612152576447,-0.12850551307201385,0.04418184235692024
1758447395230717700,11.5847177734375,0.02395034022629261,-0.12103880941867828,0.04760666564106941
1758447395240689400,11.594689453125,0.020497284829616547,-0.10206777602434158,0.042563438415527344
1758447395250662700,11.60466259765625,0.01948714815080166,-0.07289072126150131,0.0321321040391922
1758447395260634600,11.614634521484374,0.02118518017232418,-0.046359773725271225,0.01948794722557068
1758447395270606600,11.624606689453126,0.022356437519192696,-0.028181569650769234,-0.003599794814363122
1758447395280579600,11.63457958984375,0.023802002891898155,-0.009488577023148537,-0.03682485967874527
1758447395290551600,11.644551513671875,0.031983498483896255,0.00860467366874218,-0.06591323763132095
1758447395300523500,11.6545234375,0.03513987734913826,0.013350958935916424,-0.0636996179819107
1758447395310496500,11.66449658203125,0.03579634800553322,-0.0029854036401957273,-0.02678154595196247
1758447395320468700,11.67446875,0.03394731506705284,-0.03899533674120903,0.03358272835612297
1758447395330440400,11.6844404296875,0.040104277431964874,-0.07426677644252777,0.08518067747354507
1758447395340412700,11.69441259765625,0.055565789341926575,-0.108602374792099,0.11642621457576752
1758447395350385700,11.7043857421875,0.07539382576942444,-0.16071617603302002,0.12536750733852386
1758447395360357600,11.714357666015625,0.09603545069694519,-0.22468796372413635,0.10523959994316101
1758447395370329600,11.72432958984375,0.11303654313087463,-0.2796012759208679,0.052689045667648315
1758447395380302600,11.734302490234375,0.1291915476322174,-0.298532098531723,-0.024402013048529625
1758447395390274600,11.744274658203125,0.13129836320877075,-0.2863529324531555,-0.10288456827402115
1758447395400246500,11.75424658203125,0.12843680381774902,-0.25602778792381287,-0.1516268104314804
1758447395410219800,11.7642197265625,0.12303564697504044,-0.21604600548744202,-0.17410708963871002
1758447395420191500,11.77419140625,0.0836019515991211,-0.17868666350841522,-0.17738810181617737
1758447395430163700,11.784163818359374,0.023485351353883743,-0.16089114546775818,-0.17089851200580597
1758447395440135700,11.7941357421875,-0.05013400688767433,-0.16113722324371338,-0.15467959642410278
1758447395450108400,11.8041083984375,-0.1712079644203186,-0.1596173644065857,-0.1388646811246872
1758447395460080600,11.81408056640625,-0.2557809054851532,-0.1334155797958374,-0.11715112626552582
1758447395470052600,11.824052490234376,-0.23741628229618073,-0.04972361400723457,-0.06532787531614304
1758447395480025600,11.834025634765625,-0.20699232816696167,0.03771169111132622,0.009463809430599213
1758447395489997600,11.84399755859375,-0.19646671414375305,0.09296562522649765,0.09249451011419296
1758447395499969800,11.8539697265625,-0.19137848913669586,0.11562752723693848,0.15373656153678894
1758447395509942500,11.863942626953126,-0.20879794657230377,0.08932748436927795,0.18712088465690613
1758447395519914800,11.873914794921875,-0.23240554332733154,0.03677479177713394,0.20413582026958466
1758447395529886700,11.88388671875,-0.24309493601322174,-0.019772639498114586,0.21610219776630402
1758447395539858700,11.893858642578126,-0.23644661903381348,-0.06431347876787186,0.21943408250808716
1758447395549831700,11.903831787109375,-0.22160163521766663,-0.06964831799268723,0.19773517549037933
1758447395559803600,11.9138037109375,-0.21219108998775482,0.0026706180069595575,0.13818636536598206
1758447395569775600,11.923775634765626,-0.1911124289035797,0.13669472932815552,0.045345112681388855
1758447395579748600,11.93374853515625,-0.16457189619541168,0.2570033073425293,-0.045402903109788895
1758447395589720800,11.943720947265625,-0.13302090764045715,0.33206236362457275,-0.11555296182632446
1758447395599692500,11.953692626953124,-0.10912595689296722,0.36891624331474304,-0.17071634531021118
1758447395609665500,11.96366552734375,-0.07518663257360458,0.36446505784988403,-0.17587222158908844
1758447395619637800,11.9736376953125,-0.030778951942920685,0.3195739984512329,-0.1334688514471054
1758447395629609500,11.983609375,0.007632353343069553,0.2606739401817322,-0.0853324756026268
1758447395639581700,11.993581787109376,0.04085874930024147,0.226842999458313,-0.08774343132972717
1758447395649554700,12.0035546875,0.061473481357097626,0.23660588264465332,-0.13787265121936798
1758447395659526700,12.013526611328125,0.07543829828500748,0.2691052258014679,-0.2057315856218338
1758447395669498600,12.02349853515625,0.0911879688501358,0.2643909156322479,-0.2710117995738983
1758447395679471600,12.0334716796875,0.09849807620048523,0.19685420393943787,-0.32396236062049866
