time,seconds_elapsed,z,y,x
1758447383662861800,0.01686181640625,-0.9590606689453125,-0.3909454345703125,-0.03948974609375
1758447383672833800,0.026833740234375,-0.9432220458984375,-0.3936920166015625,-0.0382843017578125
1758447383682805800,0.0368056640625,-0.9176177978515625,-0.400482177734375,-0.0309295654296875
1758447383692778000,0.046778076171875,-0.8889617919921875,-0.407958984375,-0.0223236083984375
1758447383702751000,0.0567509765625,-0.8724365234375,-0.4129791259765625,-0.011199951171875
1758447383712722700,0.06672265625,-0.8581390380859375,-0.41253662109375,-0.00787353515625
1758447383722695000,0.07669482421875,-0.85321044921875,-0.4136505126953125,-0.0105438232421875
1758447383732668000,0.08666796875,-0.856781005859375,-0.4141387939453125,-0.0132293701171875
1758447383742639900,0.096639892578125,-0.863616943359375,-0.411895751953125,-0.015380859375
1758447383752612400,0.1066123046875,-0.8729248046875,-0.4084625244140625,-0.0191497802734375
1758447383762584300,0.116584228515625,-0.88665771484375,-0.404388427734375,-0.0211181640625
1758447383772557300,0.126557373046875,-0.8993377685546875,-0.4012451171875,-0.0189666748046875
1758447383782529300,0.136529296875,-0.9052886962890625,-0.395355224609375,-0.01531982421875
1758447383792501500,0.14650146484375,-0.90728759765625,-0.3910064697265625,-0.01190185546875
1758447383802474200,0.15647412109375,-0.90936279296875,-0.3912353515625,-0.011871337890625
1758447383812446500,0.166446533203125,-0.9123687744140625,-0.394256591796875,-0.0131988525390625
1758447383822418200,0.176418212890625,-0.9115142822265625,-0.3969879150390625,-0.01922607421875
1758447383832391200,0.18639111328125,-0.91094970703125,-0.3994598388671875,-0.026214599609375
1758447383842363400,0.19636328125,-0.9109649658203125,-0.4017486572265625,-0.028717041015625
1758447383852335000,0.206335205078125,-0.9088592529296875,-0.403411865234375,-0.02850341796875
1758447383862307300,0.216307373046875,-0.90692138671875,-0.4027252197265625,-0.0272979736328125
1758447383872280300,0.2262802734375,-0.907867431640625,-0.40008544921875,-0.025238037109375
1758447383882252300,0.236252197265625,-0.9034576416015625,-0.3994598388671875,-0.0234375
1758447383892224300,0.246224365234375,-0.893218994140625,-0.3987884521484375,-0.023834228515625
1758447383902197200,0.256197265625,-0.887939453125,-0.402679443359375,-0.0254058837890625
1758447383912169200,0.266169189453125,-0.889923095703125,-0.4087371826171875,-0.028411865234375
1758447383922141400,0.276141357421875,-0.8948822021484375,-0.4148712158203125,-0.03448486328125
1758447383932113400,0.286113525390625,-0.8994598388671875,-0.413543701171875,-0.0361480712890625
1758447383942086100,0.296086181640625,-0.90386962890625,-0.4091949462890625,-0.034210205078125
1758447383952058400,0.306058349609375,-0.9051055908203125,-0.406158447265625,-0.0271759033203125
1758447383962030300,0.3160302734375,-0.902984619140625,-0.40093994140625,-0.022918701171875
1758447383972003300,0.32600341796875,-0.8982696533203125,-0.402099609375,-0.0277557373046875
1758447383981975300,0.335975341796875,-0.9007568359375,-0.404876708984375,-0.0361328125
1758447383991947500,0.345947509765625,-0.9085693359375,-0.406158447265625,-0.047332763671875
1758447384001919200,0.355919189453125,-0.9191436767578125,-0.4091033935546875,-0.0602874755859375
1758447384011892200,0.365892333984375,-0.9295196533203125,-0.4080657958984375,-0.06976318359375
1758447384021864400,0.375864501953125,-0.933624267578125,-0.40643310546875,-0.0723114013671875
1758447384031836200,0.385836181640625,-0.9310150146484375,-0.4046173095703125,-0.069000244140625
1758447384041809400,0.395809326171875,-0.9178924560546875,-0.40557861328125,-0.064208984375
1758447384051781400,0.405781494140625,-0.902069091796875,-0.4123382568359375,-0.058624267578125
1758447384061753300,0.41575341796875,-0.888641357421875,-0.4164276123046875,-0.0575103759765625
1758447384071725300,0.425725341796875,-0.8818817138671875,-0.4215545654296875,-0.06060791015625
1758447384081698300,0.4356982421875,-0.8843536376953125,-0.425506591796875,-0.06463623046875
1758447384091670300,0.445670166015625,-0.8905487060546875,-0.4248199462890625,-0.069305419921875
1758447384101642500,0.455642578125,-0.899261474609375,-0.425323486328125,-0.071533203125
1758447384111615500,0.465615478515625,-0.906768798828125,-0.4188079833984375,-0.071197509765625
1758447384121587200,0.475587158203125,-0.9002685546875,-0.4094085693359375,-0.0700225830078125
1758447384131559400,0.485559326171875,-0.8950042724609375,-0.40484619140625,-0.0648956298828125
1758447384141531100,0.49553125,-0.8928680419921875,-0.4016876220703125,-0.053466796875
1758447384151504400,0.50550439453125,-0.8851318359375,-0.4000244140625,-0.0422210693359375
1758447384161476400,0.515476318359375,-0.8726348876953125,-0.3977203369140625,-0.03668212890625
1758447384171448300,0.5254482421875,-0.867431640625,-0.3969268798828125,-0.031982421875
1758447384181421300,0.53542138671875,-0.8689727783203125,-0.395965576171875,-0.029571533203125
1758447384191393300,0.545393310546875,-0.881103515625,-0.3875274658203125,-0.02703857421875
1758447384201365200,0.555365234375,-0.904205322265625,-0.3824310302734375,-0.02825927734375
1758447384211337200,0.565337158203125,-0.9288787841796875,-0.3798828125,-0.0303802490234375
1758447384221310500,0.575310546875,-0.9486541748046875,-0.379302978515625,-0.0374908447265625
1758447384231282200,0.5852822265625,-0.9562835693359375,-0.3807525634765625,-0.0403289794921875
1758447384241254400,0.59525439453125,-0.9401702880859375,-0.380157470703125,-0.0401611328125
1758447384251227400,0.605227294921875,-0.9119110107421875,-0.3834228515625,-0.0344085693359375
1758447384261199400,0.615199462890625,-0.8927459716796875,-0.3944244384765625,-0.0348968505859375
1758447384271171300,0.62517138671875,-0.8921051025390625,-0.4009552001953125,-0.0350341796875
1758447384281143600,0.6351435546875,-0.896240234375,-0.40093994140625,-0.0442352294921875
1758447384291116300,0.6451162109375,-0.9013519287109375,-0.3993072509765625,-0.051055908203125
1758447384301088300,0.655088134765625,-0.90948486328125,-0.3972625732421875,-0.0547332763671875
1758447384311060500,0.665060546875,-0.92095947265625,-0.397003173828125,-0.0516204833984375
1758447384321033200,0.675033203125,-0.9266204833984375,-0.3933563232421875,-0.0465240478515625
1758447384331005400,0.68500537109375,-0.9264984130859375,-0.389312744140625,-0.044586181640625
1758447384340977400,0.694977294921875,-0.92474365234375,-0.3898162841796875,-0.04180908203125
1758447384350950100,0.7049501953125,-0.9228668212890625,-0.3898773193359375,-0.03759765625
1758447384360922400,0.71492236328125,-0.915374755859375,-0.386474609375,-0.032135009765625
1758447384370894300,0.724894287109375,-0.907196044921875,-0.386627197265625,-0.0284423828125
1758447384380866300,0.7348662109375,-0.89691162109375,-0.3943634033203125,-0.0261993408203125
1758447384390839300,0.74483935546875,-0.889495849609375,-0.40106201171875,-0.02734375
1758447384400811500,0.7548115234375,-0.8835601806640625,-0.404327392578125,-0.0300750732421875
1758447384410783200,0.764783203125,-0.8890380859375,-0.402740478515625,-0.03369140625
1758447384420756200,0.774756103515625,-0.89404296875,-0.39349365234375,-0.0348663330078125
1758447384430728400,0.784728515625,-0.89678955078125,-0.384490966796875,-0.0331573486328125
1758447384440700400,0.794700439453125,-0.8971099853515625,-0.3772125244140625,-0.02911376953125
1758447384450672400,0.80467236328125,-0.9012908935546875,-0.373260498046875,-0.026824951171875
1758447384460645400,0.814645263671875,-0.9166259765625,-0.370758056640625,-0.022491455078125
1758447384470617300,0.824617431640625,-0.933013916015625,-0.3675384521484375,-0.01910400390625
1758447384480589300,0.83458935546875,-0.947784423828125,-0.36639404296875,-0.0258026123046875
1758447384490562600,0.8445625,-0.9556732177734375,-0.3651580810546875,-0.0318603515625
1758447384500534300,0.8545341796875,-0.9559326171875,-0.3692474365234375,-0.0373992919921875
1758447384510506500,0.864506591796875,-0.9476470947265625,-0.3699951171875,-0.04119873046875
1758447384520478200,0.874478271484375,-0.9354248046875,-0.3755035400390625,-0.0456390380859375
1758447384530451200,0.884451171875,-0.92510986328125,-0.3807525634765625,-0.0475921630859375
1758447384540423400,0.89442333984375,-0.912322998046875,-0.3840179443359375,-0.048309326171875
1758447384550395100,0.90439501953125,-0.9007720947265625,-0.386871337890625,-0.047760009765625
1758447384560368400,0.914368408203125,-0.8920135498046875,-0.391265869140625,-0.0508270263671875
1758447384570340400,0.92434033203125,-0.8885345458984375,-0.3979644775390625,-0.051666259765625
1758447384580312300,0.934312255859375,-0.89141845703125,-0.4002532958984375,-0.0540924072265625
1758447384590284300,0.9442841796875,-0.899383544921875,-0.394927978515625,-0.054534912109375
1758447384600257300,0.95425732421875,-0.9094696044921875,-0.3878173828125,-0.0532379150390625
1758447384610229200,0.964229248046875,-0.91693115234375,-0.38238525390625,-0.0546722412109375
1758447384620201500,0.974201416015625,-0.927947998046875,-0.3795013427734375,-0.0527801513671875
1758447384630174500,0.984174560546875,-0.92852783203125,-0.37506103515625,-0.052093505859375
1758447384640146200,0.994146240234375,-0.923614501953125,-0.375152587890625,-0.0528564453125
1758447384650118400,1.004118408203125,-0.930999755859375,-0.3788299560546875,-0.0507354736328125
1758447384660091400,1.01409130859375,-0.938720703125,-0.385040283203125,-0.053741455078125
1758447384670063400,1.0240634765625,-0.9408416748046875,-0.38848876953125,-0.0626220703125
1758447384680035300,1.034035400390625,-0.9370880126953125,-0.3929595947265625,-0.0679473876953125
1758447384690007600,1.044007568359375,-0.92828369140625,-0.3934173583984375,-0.068572998046875
1758447384699980300,1.053980224609375,-0.914642333984375,-0.390716552734375,-0.0622100830078125
1758447384709952300,1.0639521484375,-0.902618408203125,-0.3889617919921875,-0.0584869384765625
1758447384719924500,1.073924560546875,-0.894989013671875,-0.387908935546875,-0.055877685546875
1758447384729897200,1.083897216796875,-0.891937255859375,-0.390533447265625,-0.05255126953125
1758447384739869400,1.093869384765625,-0.8889007568359375,-0.394439697265625,-0.0513458251953125
1758447384749841200,1.103841064453125,-0.8981170654296875,-0.3947296142578125,-0.04791259765625
1758447384759812900,1.113812744140625,-0.9113922119140625,-0.390472412109375,-0.0456390380859375
1758447384769785900,1.123785888671875,-0.9239044189453125,-0.3824615478515625,-0.04754638671875
1758447384779758000,1.133758056640625,-0.9327392578125,-0.374725341796875,-0.049346923828125
1758447384789729800,1.143729736328125,-0.931304931640625,-0.37042236328125,-0.048614501953125
1758447384799702800,1.153702880859375,-0.9283447265625,-0.3650360107421875,-0.04632568359375
1758447384809675000,1.163675048828125,-0.92755126953125,-0.3596649169921875,-0.04205322265625
1758447384819646700,1.173646728515625,-0.91790771484375,-0.357696533203125,-0.039093017578125
1758447384829619000,1.183618896484375,-0.9091033935546875,-0.3623504638671875,-0.0386962890625
1758447384839592000,1.193592041015625,-0.9033203125,-0.3701019287109375,-0.039764404296875
1758447384849564000,1.20356396484375,-0.89874267578125,-0.3753509521484375,-0.043914794921875
1758447384859536000,1.213535888671875,-0.89788818359375,-0.3819427490234375,-0.04901123046875
1758447384869508900,1.2235087890625,-0.9034271240234375,-0.38275146484375,-0.050079345703125
1758447384879480800,1.233480712890625,-0.9090576171875,-0.3775482177734375,-0.0489349365234375
1758447384889453000,1.243453125,-0.9140472412109375,-0.3694000244140625,-0.042938232421875
1758447384899424800,1.2534248046875,-0.916015625,-0.36676025390625,-0.033935546875
1758447384909397800,1.263397705078125,-0.9131317138671875,-0.3635406494140625,-0.029144287109375
1758447384919370000,1.273369873046875,-0.9153594970703125,-0.3589630126953125,-0.0276947021484375
1758447384929341700,1.283341796875,-0.9225311279296875,-0.3572540283203125,-0.0277557373046875
1758447384939315000,1.29331494140625,-0.9259490966796875,-0.358734130859375,-0.0338592529296875
1758447384949287000,1.303286865234375,-0.9273223876953125,-0.361602783203125,-0.0410308837890625
1758447384959259000,1.3132587890625,-0.9282073974609375,-0.3694915771484375,-0.043121337890625
1758447384969232000,1.32323193359375,-0.9254302978515625,-0.381439208984375,-0.0466156005859375
1758447384979203800,1.333203857421875,-0.9275360107421875,-0.3925628662109375,-0.0492706298828125
1758447384989175800,1.34317578125,-0.9246826171875,-0.3966522216796875,-0.0525665283203125
1758447384999147800,1.353147705078125,-0.9158782958984375,-0.3953399658203125,-0.0552978515625
1758447385009121000,1.36312109375,-0.90972900390625,-0.3947601318359375,-0.05487060546875
1758447385019092700,1.3730927734375,-0.9017791748046875,-0.391387939453125,-0.0545501708984375
1758447385029065000,1.38306494140625,-0.894439697265625,-0.3916015625,-0.0526885986328125
1758447385039038000,1.393037841796875,-0.8834075927734375,-0.3961029052734375,-0.050994873046875
1758447385049010000,1.403010009765625,-0.8737640380859375,-0.4019317626953125,-0.0483245849609375
1758447385058982000,1.41298193359375,-0.875701904296875,-0.408355712890625,-0.0516815185546875
1758447385068954000,1.4229541015625,-0.88873291015625,-0.409332275390625,-0.0523681640625
1758447385078926800,1.4329267578125,-0.901947021484375,-0.4051666259765625,-0.05194091796875
1758447385088898800,1.44289892578125,-0.913665771484375,-0.3951416015625,-0.0525970458984375
1758447385098870800,1.452870849609375,-0.9238128662109375,-0.38751220703125,-0.0517120361328125
1758447385108843800,1.46284375,-0.925323486328125,-0.3805084228515625,-0.0478973388671875
1758447385118816000,1.47281591796875,-0.916961669921875,-0.3743133544921875,-0.0445709228515625
1758447385128787700,1.48278759765625,-0.9076385498046875,-0.368896484375,-0.040924072265625
1758447385138760700,1.4927607421875,-0.8990936279296875,-0.367462158203125,-0.039031982421875
1758447385148733000,1.50273291015625,-0.8966827392578125,-0.3671722412109375,-0.03857421875
1758447385158704600,1.51270458984375,-0.9062652587890625,-0.3692474365234375,-0.0382537841796875
1758447385168676900,1.5226767578125,-0.9105224609375,-0.3693084716796875,-0.0432281494140625
1758447385178649900,1.53264990234375,-0.922943115234375,-0.3710174560546875,-0.04412841796875
1758447385188621800,1.542621826171875,-0.9319610595703125,-0.3720703125,-0.04827880859375
1758447385198593800,1.55259375,-0.946441650390625,-0.3739166259765625,-0.0475616455078125
1758447385208566800,1.56256689453125,-0.9541168212890625,-0.3774871826171875,-0.0419921875
1758447385218538800,1.572538818359375,-0.9549102783203125,-0.378509521484375,-0.0382232666015625
1758447385228511000,1.582510986328125,-0.95111083984375,-0.372314453125,-0.03729248046875
1758447385238483000,1.59248291015625,-0.94305419921875,-0.3650054931640625,-0.036956787109375
1758447385248455700,1.60245556640625,-0.9360809326171875,-0.359130859375,-0.036712646484375
1758447385258428000,1.612427978515625,-0.930084228515625,-0.3575439453125,-0.0302581787109375
1758447385268399900,1.62239990234375,-0.9253692626953125,-0.3614501953125,-0.024993896484375
1758447385278372900,1.632372802734375,-0.9128265380859375,-0.3689117431640625,-0.021636962890625
1758447385288344800,1.6423447265625,-0.895965576171875,-0.37847900390625,-0.0233612060546875
1758447385298317000,1.652317138671875,-0.883087158203125,-0.3837890625,-0.027252197265625
1758447385308289800,1.662289794921875,-0.8793792724609375,-0.3844146728515625,-0.028594970703125
1758447385318261800,1.67226171875,-0.8841552734375,-0.381439208984375,-0.027099609375
1758447385328234000,1.68223388671875,-0.8939056396484375,-0.37200927734375,-0.0285186767578125
1758447385338205700,1.692205810546875,-0.9034881591796875,-0.363494873046875,-0.0337371826171875
1758447385348179000,1.702178955078125,-0.9174957275390625,-0.3620758056640625,-0.0367431640625
1758447385358151000,1.71215087890625,-0.9242095947265625,-0.3660430908203125,-0.0392913818359375
1758447385368123000,1.722122802734375,-0.922271728515625,-0.3687896728515625,-0.0421295166015625
1758447385378095900,1.732095947265625,-0.917236328125,-0.369720458984375,-0.038116455078125
1758447385388067800,1.74206787109375,-0.9150848388671875,-0.3699798583984375,-0.0365753173828125
1758447385398039800,1.752039794921875,-0.9207763671875,-0.369415283203125,-0.0361328125
1758447385408012000,1.762011962890625,-0.9267120361328125,-0.369171142578125,-0.0384674072265625
1758447385417985000,1.771985107421875,-0.9306793212890625,-0.3679351806640625,-0.0435028076171875
1758447385427956700,1.781956787109375,-0.9314727783203125,-0.3638916015625,-0.0435028076171875
1758447385437929000,1.791928955078125,-0.9299468994140625,-0.3587188720703125,-0.0381317138671875
1758447385447902000,1.80190185546875,-0.93084716796875,-0.361083984375,-0.0380401611328125
1758447385457874000,1.8118740234375,-0.92669677734375,-0.3662872314453125,-0.034423828125
1758447385467846000,1.821845947265625,-0.9209747314453125,-0.3736419677734375,-0.0350341796875
1758447385477819000,1.83181884765625,-0.923187255859375,-0.374786376953125,-0.04022216796875
1758447385487790800,1.841790771484375,-0.9229278564453125,-0.372528076171875,-0.0446929931640625
1758447385497762800,1.8517626953125,-0.9199066162109375,-0.3657073974609375,-0.044464111328125
1758447385507734800,1.86173486328125,-0.9211578369140625,-0.3676605224609375,-0.0382843017578125
1758447385517707800,1.871707763671875,-0.9157257080078125,-0.3720245361328125,-0.0375213623046875
1758447385527680000,1.881679931640625,-0.9193878173828125,-0.3731231689453125,-0.0377197265625
1758447385537651700,1.891651611328125,-0.92730712890625,-0.3740234375,-0.04058837890625
1758447385547624700,1.901624755859375,-0.9285888671875,-0.3776092529296875,-0.0410308837890625
1758447385557597000,1.911596923828125,-0.9284210205078125,-0.38189697265625,-0.0408477783203125
1758447385567569000,1.92156884765625,-0.925079345703125,-0.3834381103515625,-0.03680419921875
1758447385577540900,1.931540771484375,-0.91827392578125,-0.382293701171875,-0.0401763916015625
1758447385587513900,1.941513916015625,-0.915557861328125,-0.378570556640625,-0.0456695556640625
1758447385597485800,1.95148583984375,-0.9130859375,-0.376983642578125,-0.0503387451171875
1758447385607457800,1.961457763671875,-0.916412353515625,-0.3787689208984375,-0.0486907958984375
1758447385617431000,1.97143115234375,-0.916961669921875,-0.3773040771484375,-0.0486907958984375
1758447385627402800,1.98140283203125,-0.9192047119140625,-0.37896728515625,-0.050140380859375
1758447385637375000,1.991375,-0.9209747314453125,-0.3781280517578125,-0.0496826171875
1758447385647348000,2.001347900390625,-0.9181976318359375,-0.37554931640625,-0.0496063232421875
1758447385657319700,2.011319580078125,-0.9109039306640625,-0.37506103515625,-0.0477447509765625
1758447385667292000,2.0212919921875,-0.902740478515625,-0.378173828125,-0.0425567626953125
1758447385677264000,2.031263916015625,-0.9030914306640625,-0.3819580078125,-0.040802001953125
1758447385687236900,2.04123681640625,-0.904052734375,-0.382720947265625,-0.0389862060546875
1758447385697208800,2.051208740234375,-0.9047698974609375,-0.382598876953125,-0.0395355224609375
1758447385707181000,2.06118115234375,-0.9126129150390625,-0.3789825439453125,-0.04156494140625
1758447385717153800,2.07115380859375,-0.91387939453125,-0.3774261474609375,-0.0442657470703125
1758447385727125800,2.081125732421875,-0.908416748046875,-0.3761138916015625,-0.0446319580078125
1758447385737098000,2.091097900390625,-0.9070587158203125,-0.377960205078125,-0.0426025390625
1758447385747070000,2.101070068359375,-0.9074249267578125,-0.3766326904296875,-0.043304443359375
1758447385757043000,2.11104296875,-0.9145355224609375,-0.3746490478515625,-0.0330657958984375
1758447385767015000,2.121014892578125,-0.9186248779296875,-0.368072509765625,-0.0279388427734375
1758447385776987100,2.130987060546875,-0.924957275390625,-0.3586883544921875,-0.0293121337890625
1758447385786960000,2.1409599609375,-0.92987060546875,-0.3548583984375,-0.0338134765625
1758447385796932000,2.15093212890625,-0.931060791015625,-0.353668212890625,-0.0358123779296875
1758447385806904000,2.160904052734375,-0.9242095947265625,-0.3558807373046875,-0.034759521484375
1758447385816876800,2.170876708984375,-0.915191650390625,-0.36083984375,-0.035125732421875
1758447385826849000,2.18084912109375,-0.910736083984375,-0.369140625,-0.038177490234375
1758447385836821000,2.190821044921875,-0.9099273681640625,-0.380279541015625,-0.04296875
1758447385846793000,2.20079296875,-0.9079742431640625,-0.393707275390625,-0.0435638427734375
1758447385856766000,2.210765869140625,-0.8986053466796875,-0.3990020751953125,-0.0469207763671875
1758447385866738200,2.22073828125,-0.893585205078125,-0.3973388671875,-0.048370361328125
1758447385876710000,2.2307099609375,-0.895477294921875,-0.3900604248046875,-0.047271728515625
1758447385886683000,2.240682861328125,-0.9010162353515625,-0.3817291259765625,-0.0443115234375
1758447385896655000,2.250655029296875,-0.912933349609375,-0.380279541015625,-0.04461669921875
1758447385906626800,2.260626708984375,-0.927459716796875,-0.382537841796875,-0.046295166015625
1758447385916599000,2.27059912109375,-0.9359130859375,-0.382110595703125,-0.0484619140625
1758447385926572000,2.280572021484375,-0.936370849609375,-0.37994384765625,-0.04547119140625
1758447385936544000,2.2905439453125,-0.9254913330078125,-0.373138427734375,-0.039794921875
1758447385946516000,2.300515869140625,-0.915618896484375,-0.3700714111328125,-0.0352325439453125
1758447385956489000,2.310489013671875,-0.9075775146484375,-0.3725433349609375,-0.032928466796875
1758447385966461000,2.3204609375,-0.9039154052734375,-0.3786468505859375,-0.03265380859375
1758447385976433200,2.33043310546875,-0.9064788818359375,-0.38531494140625,-0.034820556640625
1758447385986406100,2.34040625,-0.9132537841796875,-0.389404296875,-0.0381317138671875
1758447385996377900,2.3503779296875,-0.91973876953125,-0.3854522705078125,-0.04083251953125
1758447386006350000,2.36035009765625,-0.924530029296875,-0.3795013427734375,-0.0378265380859375
1758447386016321800,2.37032177734375,-0.9296112060546875,-0.373626708984375,-0.036468505859375
1758447386026295000,2.380294921875,-0.9344482421875,-0.3720855712890625,-0.033935546875
1758447386036267000,2.39026708984375,-0.9320831298828125,-0.3693389892578125,-0.0325927734375
1758447386046239000,2.400239013671875,-0.9289703369140625,-0.3675384521484375,-0.033294677734375
1758447386056212000,2.4102119140625,-0.93060302734375,-0.366058349609375,-0.031768798828125
1758447386066184000,2.420183837890625,-0.9312744140625,-0.369171142578125,-0.031036376953125
1758447386076156000,2.430156005859375,-0.93017578125,-0.3730010986328125,-0.0300140380859375
1758447386086127900,2.4401279296875,-0.924560546875,-0.37493896484375,-0.0309906005859375
1758447386096101000,2.45010107421875,-0.9187164306640625,-0.3765869140625,-0.035369873046875
1758447386106072800,2.46007275390625,-0.9102935791015625,-0.376190185546875,-0.0363006591796875
1758447386116045000,2.470045166015625,-0.90216064453125,-0.376434326171875,-0.039825439453125
1758447386126018000,2.48001806640625,-0.90069580078125,-0.3778533935546875,-0.03802490234375
1758447386135990000,2.489989990234375,-0.902679443359375,-0.3762664794921875,-0.035186767578125
1758447386145962000,2.4999619140625,-0.9101104736328125,-0.3735198974609375,-0.0390625
1758447386155935000,2.50993505859375,-0.918609619140625,-0.3729400634765625,-0.0428619384765625
1758447386165907000,2.519906982421875,-0.921844482421875,-0.37445068359375,-0.045745849609375
1758447386175879000,2.52987890625,-0.9163818359375,-0.37408447265625,-0.0461578369140625
1758447386185851100,2.53985107421875,-0.90350341796875,-0.37664794921875,-0.04376220703125
1758447386195823900,2.549823974609375,-0.8955230712890625,-0.378265380859375,-0.037872314453125
1758447386205796000,2.559796142578125,-0.8905181884765625,-0.378387451171875,-0.03314208984375
1758447386215768000,2.56976806640625,-0.8948516845703125,-0.3757171630859375,-0.0324249267578125
1758447386225740800,2.57974072265625,-0.9076080322265625,-0.375457763671875,-0.0314483642578125
1758447386235713000,2.589713134765625,-0.9274749755859375,-0.3754730224609375,-0.0329742431640625
1758447386245685000,2.59968505859375,-0.9367828369140625,-0.3706207275390625,-0.033203125
1758447386255658000,2.609657958984375,-0.934783935546875,-0.3654937744140625,-0.0326385498046875
1758447386265630000,2.6196298828125,-0.9278106689453125,-0.3664398193359375,-0.0306854248046875
1758447386275602200,2.629602294921875,-0.9173431396484375,-0.3668060302734375,-0.0271148681640625
1758447386285574000,2.639573974609375,-0.907318115234375,-0.3690185546875,-0.0250701904296875
1758447386295547100,2.649547119140625,-0.898284912109375,-0.3722381591796875,-0.021728515625
1758447386305519000,2.65951904296875,-0.8893280029296875,-0.3734130859375,-0.021636962890625
1758447386315491000,2.669490966796875,-0.885955810546875,-0.3771514892578125,-0.0233154296875
1758447386325464000,2.679464111328125,-0.8876800537109375,-0.3795623779296875,-0.0289764404296875
1758447386335436000,2.68943603515625,-0.905303955078125,-0.3839263916015625,-0.033966064453125
1758447386345408000,2.699407958984375,-0.9264068603515625,-0.383392333984375,-0.039337158203125
1758447386355380000,2.7093798828125,-0.9333648681640625,-0.3772125244140625,-0.04547119140625
1758447386365353200,2.719353271484375,-0.9316864013671875,-0.3734283447265625,-0.046722412109375
1758447386375325000,2.729324951171875,-0.9303436279296875,-0.368011474609375,-0.0414886474609375
1758447386385297200,2.739297119140625,-0.9284210205078125,-0.365692138671875,-0.033050537109375
1758447386395270100,2.749270263671875,-0.9241790771484375,-0.36859130859375,-0.0267181396484375
1758447386405241900,2.759241943359375,-0.9130706787109375,-0.3768768310546875,-0.0297088623046875
1758447386415214000,2.769214111328125,-0.89910888671875,-0.3866119384765625,-0.0344696044921875
1758447386425187000,2.77918701171875,-0.893402099609375,-0.3950958251953125,-0.035980224609375
1758447386435159000,2.789158935546875,-0.9004669189453125,-0.3999176025390625,-0.0357208251953125
1758447386445131000,2.799131103515625,-0.916595458984375,-0.394561767578125,-0.03656005859375
1758447386455103000,2.80910302734375,-0.9372711181640625,-0.382904052734375,-0.0373382568359375
1758447386465076000,2.819075927734375,-0.9526519775390625,-0.37579345703125,-0.0357208251953125
1758447386475048200,2.829048095703125,-0.9591827392578125,-0.3680419921875,-0.034271240234375
1758447386485020000,2.83902001953125,-0.9529266357421875,-0.364013671875,-0.03057861328125
1758447386494993000,2.848992919921875,-0.939605712890625,-0.3632659912109375,-0.023468017578125
1758447386504965000,2.858965087890625,-0.9207305908203125,-0.361358642578125,-0.0185699462890625
1758447386514936800,2.868936767578125,-0.9068450927734375,-0.364776611328125,-0.0184478759765625
1758447386524909000,2.878908935546875,-0.9015350341796875,-0.37005615234375,-0.0246124267578125
1758447386534882000,2.888882080078125,-0.904510498046875,-0.3779449462890625,-0.032073974609375
1758447386544854000,2.89885400390625,-0.9085540771484375,-0.3822021484375,-0.0366058349609375
1758447386554826000,2.908825927734375,-0.9163665771484375,-0.3829803466796875,-0.040069580078125
1758447386564799000,2.918799072265625,-0.9189910888671875,-0.378509521484375,-0.041534423828125
1758447386574771000,2.92877099609375,-0.916900634765625,-0.3697967529296875,-0.03643798828125
1758447386584743000,2.938742919921875,-0.9189910888671875,-0.36395263671875,-0.0280303955078125
1758447386594716200,2.948716064453125,-0.920501708984375,-0.363128662109375,-0.01995849609375
1758447386604688000,2.95868798828125,-0.9173583984375,-0.3672332763671875,-0.019287109375
1758447386614660000,2.96866015625,-0.910797119140625,-0.3716888427734375,-0.0267486572265625
1758447386624631800,2.9786318359375,-0.905059814453125,-0.378143310546875,-0.0357513427734375
1758447386634605000,2.98860498046875,-0.9013214111328125,-0.3847503662109375,-0.0428009033203125
1758447386644577000,2.998576904296875,-0.90435791015625,-0.3853302001953125,-0.04559326171875
1758447386654549000,3.008549072265625,-0.9036407470703125,-0.3839874267578125,-0.04345703125
1758447386664522000,3.01852197265625,-0.90411376953125,-0.3852081298828125,-0.043212890625
1758447386674494000,3.028493896484375,-0.9119415283203125,-0.3817596435546875,-0.038726806640625
1758447386684466000,3.0384658203125,-0.9180908203125,-0.3787384033203125,-0.0390472412109375
1758447386694438000,3.04843798828125,-0.9223785400390625,-0.37847900390625,-0.0406646728515625
1758447386704411100,3.0584111328125,-0.923065185546875,-0.3795013427734375,-0.0426177978515625
1758447386714382800,3.0683828125,-0.9150543212890625,-0.381439208984375,-0.0421905517578125
1758447386724355000,3.07835498046875,-0.911041259765625,-0.384429931640625,-0.040252685546875
1758447386734328000,3.088328125,-0.9066314697265625,-0.3886871337890625,-0.0391693115234375
1758447386744299800,3.0982998046875,-0.9002532958984375,-0.3876800537109375,-0.0375823974609375
1758447386754272300,3.108272216796875,-0.9037933349609375,-0.3885955810546875,-0.0353546142578125
1758447386764245200,3.118245361328125,-0.9113922119140625,-0.38836669921875,-0.0375823974609375
1758447386774217500,3.128217529296875,-0.92327880859375,-0.3845977783203125,-0.0383453369140625
1758447386784189200,3.138189208984375,-0.926361083984375,-0.38409423828125,-0.03759765625
1758447386794161400,3.148161376953125,-0.9251556396484375,-0.3830718994140625,-0.035552978515625
1758447386804134400,3.158134521484375,-0.9239349365234375,-0.3821868896484375,-0.0348663330078125
1758447386814106000,3.168106201171875,-0.918426513671875,-0.380523681640625,-0.033935546875
1758447386824078300,3.178078369140625,-0.915496826171875,-0.3805694580078125,-0.0298004150390625
1758447386834051300,3.18805126953125,-0.9166412353515625,-0.3819122314453125,-0.0290679931640625
1758447386844023300,3.198023193359375,-0.921783447265625,-0.376068115234375,-0.0294952392578125
1758447386853995300,3.207995361328125,-0.9250946044921875,-0.3715057373046875,-0.028778076171875
1758447386863967500,3.217967529296875,-0.924713134765625,-0.36962890625,-0.02960205078125
1758447386873940200,3.227940185546875,-0.9283447265625,-0.3667144775390625,-0.0301666259765625
1758447386883912400,3.237912353515625,-0.9291839599609375,-0.368927001953125,-0.031463623046875
1758447386893884400,3.247884521484375,-0.9226226806640625,-0.370697021484375,-0.033782958984375
1758447386903857200,3.257857177734375,-0.9144439697265625,-0.376708984375,-0.03509521484375
1758447386913829400,3.267829345703125,-0.909423828125,-0.3792877197265625,-0.0339202880859375
1758447386923801300,3.27780126953125,-0.9074249267578125,-0.378448486328125,-0.0288848876953125
1758447386933774300,3.2877744140625,-0.903594970703125,-0.375213623046875,-0.0254364013671875
1758447386943746300,3.297746337890625,-0.9031829833984375,-0.372833251953125,-0.0250396728515625
1758447386953718500,3.307718505859375,-0.9033966064453125,-0.3766326904296875,-0.023956298828125
1758447386963690200,3.317690185546875,-0.8944091796875,-0.3832244873046875,-0.0265655517578125
1758447386973663200,3.327663330078125,-0.888916015625,-0.3885955810546875,-0.0318450927734375
1758447386983635500,3.337635498046875,-0.8936614990234375,-0.390045166015625,-0.0338897705078125
1758447386993607200,3.347607177734375,-0.9050445556640625,-0.3890533447265625,-0.03668212890625
1758447387003580400,3.357580322265625,-0.9204864501953125,-0.3817138671875,-0.0363311767578125
1758447387013552400,3.367552490234375,-0.9352569580078125,-0.373931884765625,-0.0357208251953125
1758447387023524400,3.3775244140625,-0.95159912109375,-0.3699493408203125,-0.037261962890625
1758447387033496300,3.387496337890625,-0.950897216796875,-0.3635711669921875,-0.0381011962890625
1758447387043469300,3.39746923828125,-0.93402099609375,-0.36212158203125,-0.0359649658203125
1758447387053441300,3.407441162109375,-0.913726806640625,-0.365814208984375,-0.0279541015625
1758447387063413500,3.41741357421875,-0.893035888671875,-0.3746490478515625,-0.02490234375
1758447387073386500,3.427386474609375,-0.884552001953125,-0.3836669921875,-0.026885986328125
1758447387083358200,3.437358154296875,-0.8858795166015625,-0.387664794921875,-0.0348052978515625
1758447387093330400,3.447330322265625,-0.897369384765625,-0.3894195556640625,-0.0402984619140625
1758447387103303400,3.457303466796875,-0.9131622314453125,-0.38836669921875,-0.0444488525390625
1758447387113275400,3.467275390625,-0.9228515625,-0.381134033203125,-0.04168701171875
1758447387123247400,3.477247314453125,-0.9331817626953125,-0.37432861328125,-0.03692626953125
1758447387133219300,3.48721923828125,-0.93597412109375,-0.3682708740234375,-0.0303955078125
1758447387143192300,3.4971923828125,-0.9312896728515625,-0.3666534423828125,-0.0287933349609375
1758447387153164300,3.507164306640625,-0.9234619140625,-0.36859130859375,-0.0301361083984375
1758447387163136300,3.51713623046875,-0.9158782958984375,-0.376220703125,-0.033203125
1758447387173109200,3.527109130859375,-0.9092559814453125,-0.3797454833984375,-0.040740966796875
1758447387183081500,3.53708154296875,-0.9068145751953125,-0.379730224609375,-0.0419464111328125
1758447387193053200,3.54705322265625,-0.9101104736328125,-0.3818359375,-0.0424346923828125
1758447387203025400,3.557025390625,-0.9070281982421875,-0.3843536376953125,-0.0422515869140625
1758447387212998400,3.566998291015625,-0.9063262939453125,-0.38885498046875,-0.040374755859375
1758447387222970400,3.576970458984375,-0.90606689453125,-0.3855743408203125,-0.0412750244140625
1758447387232942300,3.5869423828125,-0.902008056640625,-0.381927490234375,-0.04095458984375
1758447387242915300,3.596915283203125,-0.902435302734375,-0.3814544677734375,-0.03973388671875
1758447387252887300,3.60688720703125,-0.903045654296875,-0.3810272216796875,-0.0401763916015625
1758447387262859300,3.616859375,-0.9073638916015625,-0.3857574462890625,-0.0428466796875
1758447387272831500,3.62683154296875,-0.9191741943359375,-0.3884124755859375,-0.0469970703125
1758447387282804200,3.63680419921875,-0.9258880615234375,-0.3839569091796875,-0.047515869140625
1758447387292776400,3.6467763671875,-0.9226531982421875,-0.380859375,-0.0471343994140625
1758447387302748400,3.65674853515625,-0.9134521484375,-0.378997802734375,-0.0410003662109375
1758447387312721200,3.66672119140625,-0.904571533203125,-0.3820037841796875,-0.0373992919921875
1758447387322693400,3.676693359375,-0.899261474609375,-0.38238525390625,-0.0357818603515625
1758447387332665300,3.686665283203125,-0.9055938720703125,-0.38525390625,-0.03631591796875
1758447387342637300,3.69663720703125,-0.9170379638671875,-0.3845367431640625,-0.038665771484375
1758447387352610300,3.7066103515625,-0.9272003173828125,-0.3828582763671875,-0.037445068359375
1758447387362582500,3.71658251953125,-0.9309844970703125,-0.3792572021484375,-0.037445068359375
1758447387372554200,3.72655419921875,-0.9261322021484375,-0.37445068359375,-0.0384521484375
1758447387382527200,3.73652734375,-0.9185638427734375,-0.374114990234375,-0.0395355224609375
1758447387392499500,3.74649951171875,-0.910736083984375,-0.37677001953125,-0.037139892578125
1758447387402471400,3.756471435546875,-0.906768798828125,-0.376953125,-0.035980224609375
1758447387412444400,3.7664443359375,-0.9076080322265625,-0.37432861328125,-0.033935546875
1758447387422416400,3.77641650390625,-0.915069580078125,-0.3730316162109375,-0.0358123779296875
1758447387432388400,3.786388427734375,-0.9268341064453125,-0.3744049072265625,-0.0348663330078125
1758447387442360300,3.7963603515625,-0.9309844970703125,-0.3774566650390625,-0.038055419921875
1758447387452333300,3.806333251953125,-0.9232940673828125,-0.377410888671875,-0.04339599609375
1758447387462305300,3.81630517578125,-0.9109344482421875,-0.3783416748046875,-0.0474395751953125
1758447387472277500,3.826277587890625,-0.8957672119140625,-0.3752899169921875,-0.047454833984375
1758447387482250200,3.836250244140625,-0.8884735107421875,-0.377838134765625,-0.0433807373046875
1758447387492222200,3.84622216796875,-0.895233154296875,-0.3824920654296875,-0.038421630859375
1758447387502194400,3.8561943359375,-0.9044189453125,-0.3858184814453125,-0.0366973876953125
1758447387512166100,3.866166259765625,-0.9082183837890625,-0.3893585205078125,-0.0429534912109375
1758447387522139400,3.876139404296875,-0.910064697265625,-0.3897247314453125,-0.048370361328125
1758447387532111400,3.886111328125,-0.912811279296875,-0.3888092041015625,-0.0489501953125
1758447387542083300,3.896083251953125,-0.91180419921875,-0.38385009765625,-0.045074462890625
1758447387552056300,3.906056396484375,-0.9188385009765625,-0.3796539306640625,-0.0434722900390625
1758447387562028300,3.9160283203125,-0.9288330078125,-0.3751983642578125,-0.0445098876953125
1758447387572000300,3.926000244140625,-0.933837890625,-0.371429443359375,-0.0455322265625
1758447387581972500,3.935972412109375,-0.9342041015625,-0.3719024658203125,-0.0460968017578125
1758447387591945500,3.945945556640625,-0.9256134033203125,-0.3740081787109375,-0.04364013671875
1758447387601917200,3.955917236328125,-0.911041259765625,-0.3787994384765625,-0.0389251708984375
1758447387611889400,3.965889404296875,-0.9007110595703125,-0.3824920654296875,-0.037872314453125
1758447387621862400,3.9758623046875,-0.898406982421875,-0.385467529296875,-0.0374755859375
1758447387631834400,3.98583447265625,-0.897369384765625,-0.385589599609375,-0.035614013671875
1758447387641806300,3.995806396484375,-0.8983917236328125,-0.3874969482421875,-0.0391998291015625
1758447387651779300,4.005779296875,-0.9033050537109375,-0.3818817138671875,-0.041778564453125
1758447387661751300,4.015751220703125,-0.9095611572265625,-0.373138427734375,-0.0396881103515625
1758447387671723300,4.02572314453125,-0.91815185546875,-0.367919921875,-0.036407470703125
1758447387681695200,4.0356953125,-0.9310302734375,-0.3656158447265625,-0.0356292724609375
1758447387691668200,4.045668212890625,-0.940704345703125,-0.3652801513671875,-0.0343780517578125
1758447387701640400,4.055640380859375,-0.9423675537109375,-0.3654022216796875,-0.03216552734375
1758447387711612200,4.065612060546875,-0.9317779541015625,-0.3664398193359375,-0.0341949462890625
1758447387721585200,4.075585205078125,-0.9143218994140625,-0.370025634765625,-0.0360565185546875
1758447387731557400,4.085557373046875,-0.896942138671875,-0.37738037109375,-0.0420074462890625
1758447387741529300,4.095529296875,-0.8955230712890625,-0.3818817138671875,-0.0424346923828125
1758447387751501300,4.105501220703125,-0.899749755859375,-0.3820648193359375,-0.042022705078125
1758447387761474600,4.115474609375,-0.9078521728515625,-0.3763275146484375,-0.038482666015625
1758447387771446500,4.125446533203125,-0.913970947265625,-0.37298583984375,-0.0366973876953125
1758447387781418500,4.13541845703125,-0.913848876953125,-0.3740997314453125,-0.0365447998046875
1758447387791391500,4.1453916015625,-0.9143524169921875,-0.3780975341796875,-0.037567138671875
1758447387801363500,4.155363525390625,-0.910369873046875,-0.38018798828125,-0.0418853759765625
1758447387811335700,4.165335693359375,-0.9064788818359375,-0.3832244873046875,-0.04705810546875
1758447387821307600,4.1753076171875,-0.91009521484375,-0.3879547119140625,-0.0464935302734375
1758447387831280400,4.1852802734375,-0.9173126220703125,-0.386138916015625,-0.0486907958984375
1758447387841252600,4.195252685546875,-0.9210052490234375,-0.3801727294921875,-0.048675537109375
1758447387851224600,4.205224609375,-0.9214935302734375,-0.3773956298828125,-0.046112060546875
1758447387861197600,4.215197509765625,-0.9217376708984375,-0.3797607421875,-0.044677734375
1758447387871169500,4.22516943359375,-0.91876220703125,-0.3796539306640625,-0.0425262451171875
1758447387881141800,4.235141845703125,-0.909393310546875,-0.37762451171875,-0.0441131591796875
1758447387891113500,4.245113525390625,-0.9036712646484375,-0.378021240234375,-0.044158935546875
1758447387901086500,4.25508642578125,-0.9045257568359375,-0.3784637451171875,-0.0413055419921875
1758447387911058700,4.26505859375,-0.9096221923828125,-0.37884521484375,-0.040435791015625
1758447387921030400,4.275030517578125,-0.9173431396484375,-0.3751220703125,-0.041473388671875
1758447387931003600,4.285003662109375,-0.9296875,-0.373077392578125,-0.042388916015625
1758447387940975600,4.2949755859375,-0.937408447265625,-0.371978759765625,-0.04290771484375
1758447387950947600,4.304947509765625,-0.9403076171875,-0.374114990234375,-0.0435028076171875
1758447387960919600,4.31491943359375,-0.939300537109375,-0.3753662109375,-0.04425048828125
1758447387970892500,4.324892578125,-0.935638427734375,-0.374267578125,-0.041748046875
1758447387980864500,4.334864501953125,-0.926605224609375,-0.3738555908203125,-0.0417022705078125
1758447387990836700,4.344836669921875,-0.9163818359375,-0.37530517578125,-0.042633056640625
1758447388000809700,4.354809814453125,-0.9096527099609375,-0.3750152587890625,-0.0457000732421875
1758447388010781400,4.364781494140625,-0.9041595458984375,-0.37152099609375,-0.0477142333984375
1758447388020753700,4.374753662109375,-0.9078369140625,-0.37353515625,-0.0454864501953125
1758447388030725400,4.384725341796875,-0.91522216796875,-0.3772735595703125,-0.0460357666015625
1758447388040698600,4.39469873046875,-0.9165191650390625,-0.3833160400390625,-0.0445709228515625
1758447388050670600,4.404670654296875,-0.91180419921875,-0.3880767822265625,-0.0438995361328125
1758447388060642600,4.414642578125,-0.8998870849609375,-0.3911285400390625,-0.046875
1758447388070615600,4.424615478515625,-0.886566162109375,-0.3869476318359375,-0.0482177734375
1758447388080587500,4.43458740234375,-0.8870391845703125,-0.3819580078125,-0.0432586669921875
1758447388090560800,4.444560791015625,-0.8984222412109375,-0.37652587890625,-0.0414581298828125
1758447388100532500,4.454532470703125,-0.91815185546875,-0.37115478515625,-0.041900634765625
1758447388110504700,4.464504638671875,-0.9422607421875,-0.36785888671875,-0.04449462890625
1758447388120477700,4.474477783203125,-0.9526519775390625,-0.3631134033203125,-0.046173095703125
1758447388130449400,4.484449462890625,-0.94293212890625,-0.3638458251953125,-0.04290771484375
1758447388140421600,4.494421630859375,-0.9243011474609375,-0.367431640625,-0.0398101806640625
1758447388150394600,4.50439453125,-0.9042510986328125,-0.3736724853515625,-0.0379180908203125
1758447388160366600,4.51436669921875,-0.887420654296875,-0.377532958984375,-0.0400390625
1758447388170338600,4.524338623046875,-0.8826751708984375,-0.381378173828125,-0.0455780029296875
1758447388180310500,4.534310546875,-0.8867340087890625,-0.38458251953125,-0.048675537109375
1758447388190283500,4.544283447265625,-0.900848388671875,-0.3844757080078125,-0.048095703125
1758447388200255700,4.554255859375,-0.9208984375,-0.38116455078125,-0.04608154296875
1758447388210227500,4.5642275390625,-0.934417724609375,-0.3768768310546875,-0.0459136962890625
1758447388220200400,4.574200439453125,-0.9434356689453125,-0.37225341796875,-0.043304443359375
1758447388230172700,4.584172607421875,-0.94207763671875,-0.366912841796875,-0.0405731201171875
1758447388240144400,4.594144287109375,-0.9315338134765625,-0.3631134033203125,-0.0370025634765625
1758447388250116600,4.60411669921875,-0.917236328125,-0.36578369140625,-0.0338287353515625
1758447388260089600,4.614089599609375,-0.9041595458984375,-0.3706817626953125,-0.032073974609375
1758447388270061600,4.6240615234375,-0.9061737060546875,-0.3741302490234375,-0.0323333740234375
1758447388280033500,4.634033447265625,-0.9117431640625,-0.37744140625,-0.037078857421875
1758447388290006500,4.644006591796875,-0.9187774658203125,-0.3798980712890625,-0.0391845703125
1758447388299978500,4.653978515625,-0.92132568359375,-0.379913330078125,-0.039398193359375
1758447388309950500,4.663950439453125,-0.920166015625,-0.3776702880859375,-0.0374908447265625
1758447388319922700,4.673922607421875,-0.9146270751953125,-0.376800537109375,-0.0349273681640625
1758447388329895400,4.6838955078125,-0.909576416015625,-0.3726654052734375,-0.033447265625
1758447388339867600,4.69386767578125,-0.9084014892578125,-0.3737945556640625,-0.0321502685546875
1758447388349839600,4.703839599609375,-0.9112701416015625,-0.3733062744140625,-0.0300445556640625
1758447388359812600,4.7138125,-0.9210357666015625,-0.3730316162109375,-0.0317230224609375
1758447388369784600,4.72378466796875,-0.926177978515625,-0.3763885498046875,-0.03668212890625
1758447388379756800,4.7337568359375,-0.9280242919921875,-0.380035400390625,-0.04180908203125
1758447388389728500,4.743728515625,-0.9261322021484375,-0.3789215087890625,-0.0408935546875
1758447388399701500,4.753701416015625,-0.918304443359375,-0.3781890869140625,-0.0376434326171875
1758447388409673700,4.763673828125,-0.909912109375,-0.37335205078125,-0.0374298095703125
1758447388419645400,4.7736455078125,-0.902984619140625,-0.372955322265625,-0.034423828125
1758447388429618700,4.78361865234375,-0.901275634765625,-0.374114990234375,-0.033477783203125
1758447388439590700,4.793590576171875,-0.9067535400390625,-0.37640380859375,-0.0338897705078125
1758447388449562600,4.803562744140625,-0.9180145263671875,-0.3818817138671875,-0.037750244140625
1758447388459534600,4.81353466796875,-0.9281463623046875,-0.3817901611328125,-0.0420074462890625
1758447388469507600,4.823507568359375,-0.9288787841796875,-0.3789825439453125,-0.046142578125
1758447388479479600,4.8334794921875,-0.9242095947265625,-0.376678466796875,-0.0470123291015625
1758447388489451500,4.843451416015625,-0.9178466796875,-0.375091552734375,-0.045013427734375
1758447388499424800,4.8534248046875,-0.911285400390625,-0.37481689453125,-0.0420989990234375
1758447388509396500,4.863396484375,-0.9106597900390625,-0.3724517822265625,-0.0409088134765625
1758447388519368700,4.87336865234375,-0.9140167236328125,-0.371856689453125,-0.0449371337890625
1758447388529340400,4.88334033203125,-0.92083740234375,-0.375152587890625,-0.0486297607421875
1758447388539313700,4.893313720703125,-0.9225921630859375,-0.3778228759765625,-0.0571136474609375
1758447388549285600,4.90328564453125,-0.91485595703125,-0.3726043701171875,-0.0597381591796875
1758447388559257600,4.913257568359375,-0.9000244140625,-0.369781494140625,-0.0540771484375
1758447388569230600,4.923230712890625,-0.8927764892578125,-0.3684539794921875,-0.047027587890625
1758447388579202600,4.93320263671875,-0.8933258056640625,-0.3681182861328125,-0.04254150390625
1758447388589174500,4.943174560546875,-0.8985748291015625,-0.372802734375,-0.0433197021484375
1758447388599147500,4.9531474609375,-0.90362548828125,-0.378997802734375,-0.0517425537109375
1758447388609119700,4.96311962890625,-0.91058349609375,-0.3850555419921875,-0.0594482421875
1758447388619091500,4.973091552734375,-0.9160919189453125,-0.381988525390625,-0.0623626708984375
1758447388629063700,4.983063720703125,-0.921112060546875,-0.3671875,-0.058685302734375
1758447388639036700,4.99303662109375,-0.9300079345703125,-0.3583831787109375,-0.055511474609375
1758447388649008600,5.003008544921875,-0.9401397705078125,-0.3616485595703125,-0.058349609375
1758447388658980600,5.012980712890625,-0.94366455078125,-0.36334228515625,-0.06292724609375
1758447388668953600,5.02295361328125,-0.9381103515625,-0.36328125,-0.06341552734375
1758447388678925600,5.032925537109375,-0.9268798828125,-0.3658905029296875,-0.0559844970703125
1758447388688897500,5.0428974609375,-0.91375732421875,-0.3693084716796875,-0.0496978759765625
1758447388698869500,5.052869384765625,-0.898651123046875,-0.3714752197265625,-0.0460205078125
1758447388708842500,5.062842529296875,-0.886138916015625,-0.3701324462890625,-0.0412139892578125
1758447388718814700,5.072814697265625,-0.88372802734375,-0.3710784912109375,-0.0441436767578125
1758447388728786400,5.082786376953125,-0.889312744140625,-0.373046875,-0.04547119140625
1758447388738759400,5.092759521484375,-0.8898773193359375,-0.3699188232421875,-0.044677734375
1758447388748731600,5.102731689453125,-0.893707275390625,-0.36639404296875,-0.0442352294921875
1758447388758702600,5.11270263671875,-0.8948822021484375,-0.364898681640625,-0.04144287109375
1758447388768674600,5.122674560546875,-0.8936920166015625,-0.362762451171875,-0.0400848388671875
1758447388778647300,5.132647216796875,-0.894256591796875,-0.3620452880859375,-0.037109375
1758447388788619500,5.14261962890625,-0.89215087890625,-0.3552703857421875,-0.0337677001953125
1758447388798591500,5.152591552734375,-0.89306640625,-0.34832763671875,-0.0329132080078125
1758447388808564500,5.162564453125,-0.90216064453125,-0.345428466796875,-0.0357666015625
1758447388818536400,5.172536376953125,-0.9144134521484375,-0.3390655517578125,-0.0395050048828125
1758447388828508700,5.1825087890625,-0.9210052490234375,-0.337615966796875,-0.0445098876953125
1758447388838480400,5.19248046875,-0.9183197021484375,-0.3385772705078125,-0.0457763671875
1758447388848453600,5.20245361328125,-0.9091949462890625,-0.3448333740234375,-0.0441131591796875
1758447388858425300,5.21242529296875,-0.9013519287109375,-0.344390869140625,-0.043243408203125
1758447388868397600,5.2223974609375,-0.8915557861328125,-0.3428802490234375,-0.0432281494140625
1758447388878370600,5.23237060546875,-0.8949127197265625,-0.3406219482421875,-0.039276123046875
1758447388888342300,5.24234228515625,-0.8980255126953125,-0.33306884765625,-0.034271240234375
1758447388898314500,5.252314453125,-0.900634765625,-0.3253021240234375,-0.026824951171875
1758447388908286500,5.262286376953125,-0.9057464599609375,-0.3217926025390625,-0.022125244140625
1758447388918259500,5.272259521484375,-0.91217041015625,-0.322235107421875,-0.02490234375
1758447388928231400,5.2822314453125,-0.91168212890625,-0.3218231201171875,-0.0339202880859375
1758447388938203600,5.29220361328125,-0.9033203125,-0.322265625,-0.034454345703125
1758447388948176400,5.30217626953125,-0.8909149169921875,-0.3211517333984375,-0.0265045166015625
1758447388958148400,5.3121484375,-0.894317626953125,-0.316864013671875,-0.0241546630859375
1758447388968120600,5.32212060546875,-0.8961029052734375,-0.3153076171875,-0.020355224609375
1758447388978092500,5.332092529296875,-0.8842620849609375,-0.3103790283203125,-0.0288848876953125
1758447388988065500,5.3420654296875,-0.8851318359375,-0.31353759765625,-0.0364227294921875
1758447388998037500,5.35203759765625,-0.8910064697265625,-0.3124847412109375,-0.046234130859375
1758447389008009500,5.362009521484375,-0.901885986328125,-0.3179168701171875,-0.0480194091796875
1758447389017982500,5.371982421875,-0.909332275390625,-0.3177642822265625,-0.0523834228515625
1758447389027954700,5.38195458984375,-0.9129486083984375,-0.317474365234375,-0.06439208984375
1758447389037926400,5.391926513671875,-0.905792236328125,-0.32635498046875,-0.0626678466796875
1758447389047898600,5.401898681640625,-0.883697509765625,-0.326171875,-0.054351806640625
1758447389057871600,5.41187158203125,-0.861358642578125,-0.3190765380859375,-0.0607757568359375
1758447389067843300,5.42184326171875,-0.8551177978515625,-0.31011962890625,-0.0779266357421875
1758447389077815600,5.431815673828125,-0.865020751953125,-0.2944183349609375,-0.0901031494140625
1758447389087788500,5.44178857421875,-0.866302490234375,-0.2881317138671875,-0.1020050048828125
1758447389097760500,5.451760498046875,-0.84942626953125,-0.280120849609375,-0.1114501953125
1758447389107732500,5.461732421875,-0.8682861328125,-0.2677764892578125,-0.10345458984375
1758447389117704400,5.471704345703125,-0.902130126953125,-0.2615814208984375,-0.0848236083984375
1758447389127677400,5.481677490234375,-0.9094390869140625,-0.2507476806640625,-0.0784759521484375
1758447389137649700,5.491649658203125,-0.8817291259765625,-0.2270355224609375,-0.0830535888671875
1758447389147621400,5.501621337890625,-0.8513946533203125,-0.2115936279296875,-0.0890960693359375
1758447389157594400,5.511594482421875,-0.841033935546875,-0.21258544921875,-0.0877227783203125
1758447389167566600,5.521566650390625,-0.8578948974609375,-0.2216339111328125,-0.0932159423828125
1758447389177538300,5.531538330078125,-0.8973236083984375,-0.26806640625,-0.1205902099609375
1758447389187510500,5.541510498046875,-0.8975677490234375,-0.264984130859375,-0.0196380615234375
1758447389197483500,5.5514833984375,-0.8509368896484375,-0.2965545654296875,-0.0679779052734375
1758447389207455500,5.56145556640625,-0.799224853515625,-0.333770751953125,-0.092529296875
1758447389217427500,5.571427490234375,-0.74810791015625,-0.3347625732421875,-0.1342926025390625
1758447389227400400,5.581400390625,-0.7343597412109375,-0.3245391845703125,-0.1464996337890625
1758447389237372400,5.591372314453125,-0.756134033203125,-0.2602081298828125,-0.1438446044921875
1758447389247344400,5.601344482421875,-0.8161773681640625,-0.12420654296875,-0.127960205078125
1758447389257316600,5.611316650390625,-0.8742828369140625,-0.0885162353515625,-0.03662109375
1758447389267289300,5.621289306640625,-0.923309326171875,-0.0906219482421875,0.0572967529296875
1758447389277261600,5.631261474609375,-0.99603271484375,-0.06585693359375,0.1590423583984375
1758447389287233500,5.641233642578125,-1.058868408203125,-0.0527496337890625,0.2375030517578125
1758447389297205500,5.65120556640625,-1.2300262451171875,0.0059967041015625,0.3369140625
1758447389307178500,5.661178466796875,-1.2264556884765625,0.0306243896484375,0.156829833984375
1758447389317150700,5.671150634765625,-1.2544708251953125,0.04766845703125,0.031463623046875
1758447389327122400,5.681122314453125,-1.2788848876953125,0.0514678955078125,-0.029388427734375
1758447389337095400,5.691095458984375,-1.278717041015625,0.03424072265625,-0.076080322265625
1758447389347067600,5.701067626953125,-1.331451416015625,0.0217132568359375,-0.0487060546875
1758447389357039400,5.711039306640625,-1.3765411376953125,0.0173492431640625,-0.0031890869140625
1758447389367011600,5.721011474609375,-1.3862152099609375,0.0271148681640625,0.0308990478515625
1758447389376984600,5.730984619140625,-1.3722076416015625,0.053131103515625,0.0370330810546875
1758447389386956500,5.74095654296875,-1.3301239013671875,0.0901031494140625,0.0347900390625
1758447389396928500,5.750928466796875,-1.3209075927734375,0.1031036376953125,0.06719970703125
1758447389406901500,5.760901611328125,-1.265655517578125,0.093719482421875,0.05889892578125
1758447389416873500,5.77087353515625,-1.1416168212890625,0.0464935302734375,-0.02398681640625
1758447389426845400,5.780845458984375,-0.829833984375,-0.1066131591796875,-0.064727783203125
1758447389436817400,5.7908173828125,-0.58941650390625,-0.33856201171875,0.0671234130859375
1758447389446790400,5.800790283203125,-0.8397369384765625,-0.3018646240234375,0.181884765625
1758447389456762600,5.8107626953125,-0.9595947265625,-0.187042236328125,0.18267822265625
1758447389466734300,5.820734375,-0.7736968994140625,-0.1408233642578125,0.247528076171875
1758447389476707600,5.83070751953125,-0.6017608642578125,-0.1232147216796875,0.3332977294921875
1758447389486679600,5.840679443359375,-0.5911712646484375,-0.11090087890625,0.3357086181640625
1758447389496651500,5.850651611328125,-0.7112884521484375,-0.0678863525390625,0.3328094482421875
1758447389506623500,5.86062353515625,-0.9757232666015625,0.061004638671875,0.3506317138671875
1758447389516596500,5.870596435546875,-0.8636016845703125,0.1405029296875,0.3125762939453125
1758447389526568400,5.880568359375,-0.6584014892578125,0.2326812744140625,0.168853759765625
1758447389536540400,5.89054052734375,-0.7476043701171875,0.1736602783203125,0.18426513671875
1758447389546513700,5.900513671875,-0.728912353515625,0.06085205078125,0.24652099609375
1758447389556485400,5.9104853515625,-0.584381103515625,-0.043212890625,0.2871246337890625
1758447389566457600,5.92045751953125,-0.3828125,-0.1345977783203125,0.2807159423828125
1758447389576429600,5.9304296875,-0.334930419921875,-0.196563720703125,0.284088134765625
1758447389586402300,5.94040234375,-0.49957275390625,-0.2238311767578125,0.373748779296875
1758447389596374500,5.95037451171875,-0.586700439453125,-0.2556610107421875,0.3469390869140625
1758447389606346500,5.960346435546875,-0.8471221923828125,-0.2803192138671875,0.1724700927734375
1758447389616319500,5.970319580078125,-1.194122314453125,-0.2092132568359375,0.100921630859375
1758447389626291500,5.98029150390625,-1.1062469482421875,-0.0562896728515625,0.000274658203125
1758447389636263700,5.990263671875,-0.69140625,0.0284423828125,-0.1095428466796875
1758447389646235400,6.0002353515625,-0.624542236328125,0.0679168701171875,-0.1427154541015625
1758447389656208600,6.010208740234375,-0.7652130126953125,0.0921630859375,-0.1608428955078125
1758447389666180600,6.0201806640625,-0.8069610595703125,0.079559326171875,-0.154449462890625
1758447389676152600,6.030152587890625,-0.8016357421875,0.0498504638671875,-0.116424560546875
1758447389686125600,6.04012548828125,-0.745513916015625,0.052581787109375,-0.1077728271484375
1758447389696097500,6.05009765625,-0.6352691650390625,0.1007232666015625,-0.11810302734375
1758447389706069500,6.060069580078125,-0.5345306396484375,0.1501312255859375,-0.1459197998046875
1758447389716041500,6.07004150390625,-0.5008544921875,0.1510162353515625,-0.17193603515625
1758447389726014700,6.0800146484375,-0.69427490234375,0.1452789306640625,-0.169281005859375
1758447389735986400,6.089986328125,-0.6920318603515625,0.184173583984375,-0.1946258544921875
1758447389745958700,6.099958740234375,-0.5528411865234375,0.2389373779296875,-0.1939544677734375
1758447389755932000,6.109931884765625,-0.639556884765625,0.2886810302734375,-0.21978759765625
1758447389765903600,6.119903564453125,-0.66900634765625,0.3409881591796875,-0.1769256591796875
1758447389775875800,6.129875732421875,-0.621124267578125,0.3709716796875,-0.1426849365234375
1758447389785847600,6.13984765625,-0.596038818359375,0.37353515625,-0.1548614501953125
1758447389795820800,6.14982080078125,-0.589813232421875,0.36907958984375,-0.2109832763671875
1758447389805792800,6.159792724609375,-0.6286773681640625,0.3729095458984375,-0.3069610595703125
1758447389815764700,6.1697646484375,-0.67889404296875,0.409210205078125,-0.4058685302734375
1758447389825737700,6.17973779296875,-0.6916351318359375,0.4366607666015625,-0.4635772705078125
1758447389835709700,6.189709716796875,-0.6934661865234375,0.411773681640625,-0.52685546875
1758447389845681700,6.199681640625,-0.7390289306640625,0.350433349609375,-0.6457672119140625
1758447389855654000,6.20965380859375,-0.79510498046875,0.3043212890625,-0.764007568359375
1758447389865627000,6.219626953125,-0.82501220703125,0.2882537841796875,-0.8741455078125
1758447389875598600,6.2295986328125,-0.832000732421875,0.2971954345703125,-1.0092926025390625
1758447389885570800,6.23957080078125,-0.778839111328125,0.301727294921875,-1.1256256103515625
1758447389895542800,6.249542724609375,-0.6708526611328125,0.3012847900390625,-1.1455841064453125
1758447389905515800,6.259515869140625,-0.6165924072265625,0.3117828369140625,-1.0775146484375
1758447389915487700,6.26948779296875,-0.64398193359375,0.320526123046875,-1.0253143310546875
1758447389925460000,6.2794599609375,-0.747406005859375,0.3010101318359375,-1.10845947265625
1758447389935432700,6.2894326171875,-0.8196563720703125,0.25537109375,-1.276611328125
1758447389945404700,6.29940478515625,-0.7644500732421875,0.19744873046875,-1.44073486328125
1758447389955377000,6.309376953125,-0.680694580078125,0.1721954345703125,-1.5342559814453125
1758447389965348600,6.3193486328125,-0.6081085205078125,0.192962646484375,-1.542083740234375
1758447389975321900,6.32932177734375,-0.497711181640625,0.224334716796875,-1.4883270263671875
1758447389985293800,6.3392939453125,-0.3461761474609375,0.23956298828125,-1.362701416015625
1758447389995265800,6.349265869140625,-0.2261505126953125,0.2525787353515625,-1.243621826171875
1758447390005238800,6.35923876953125,-0.2034912109375,0.2388458251953125,-1.1898956298828125
1758447390015210800,6.369210693359375,-0.2406463623046875,0.2162933349609375,-1.199981689453125
1758447390025182700,6.3791826171875,-0.273406982421875,0.196563720703125,-1.274505615234375
1758447390035155000,6.389155029296875,-0.3219451904296875,0.1650238037109375,-1.3761444091796875
1758447390045127700,6.399127685546875,-0.37188720703125,0.1571197509765625,-1.44757080078125
1758447390055099600,6.409099609375,-0.378692626953125,0.1834716796875,-1.448760986328125
1758447390065071900,6.41907177734375,-0.3538970947265625,0.2392120361328125,-1.3689422607421875
1758447390075044600,6.429044677734375,-0.3262176513671875,0.286529541015625,-1.24896240234375
1758447390085016800,6.439016845703125,-0.276611328125,0.355926513671875,-1.13067626953125
1758447390094988800,6.44898876953125,-0.2093353271484375,0.4555511474609375,-1.02020263671875
1758447390104960800,6.458960693359375,-0.1681365966796875,0.5147552490234375,-0.9537353515625
1758447390114933800,6.468933837890625,-0.2143707275390625,0.5424652099609375,-0.9143218994140625
1758447390124905700,6.47890576171875,-0.333526611328125,0.577392578125,-0.95098876953125
1758447390134877700,6.488877685546875,-0.4319610595703125,0.593536376953125,-1.050262451171875
1758447390144850700,6.4988505859375,-0.456451416015625,0.5339813232421875,-1.17449951171875
1758447390154823000,6.508822998046875,-0.4344482421875,0.356414794921875,-1.3445281982421875
1758447390164794600,6.518794677734375,-0.3631134033203125,0.2114105224609375,-1.435577392578125
1758447390174766800,6.528766845703125,-0.2609405517578125,0.1751251220703125,-1.4534912109375
1758447390184739800,6.53873974609375,-0.17681884765625,0.181243896484375,-1.4267578125
1758447390194711800,6.5487119140625,-0.1348724365234375,0.2007904052734375,-1.374847412109375
1758447390204683800,6.558683837890625,-0.141693115234375,0.225860595703125,-1.3599853515625
1758447390214656800,6.56865673828125,-0.2031097412109375,0.2253875732421875,-1.4640655517578125
1758447390224628700,6.578628662109375,-0.287628173828125,0.2087554931640625,-1.537322998046875
1758447390234600700,6.5886005859375,-0.28912353515625,0.16937255859375,-1.5857696533203125
1758447390244572700,6.59857275390625,-0.13104248046875,0.154541015625,-1.5197601318359375
1758447390254545700,6.608545654296875,0.149932861328125,0.142578125,-1.293426513671875
1758447390264518000,6.618517822265625,0.3772735595703125,0.134429931640625,-1.0657196044921875
1758447390274489600,6.628489501953125,0.3245391845703125,0.185455322265625,-0.902923583984375
1758447390284462600,6.638462646484375,0.1847991943359375,0.2702178955078125,-0.7270355224609375
1758447390294434800,6.648434814453125,0.061859130859375,0.361480712890625,-0.6234893798828125
1758447390304406500,6.658406494140625,0.151824951171875,0.41778564453125,-0.50994873046875
1758447390314378800,6.668378662109375,0.4217681884765625,0.534332275390625,-0.2635345458984375
1758447390324351700,6.678351806640625,0.333404541015625,0.5145416259765625,-0.25140380859375
1758447390334323700,6.68832373046875,0.1201019287109375,0.44091796875,-0.3368682861328125
1758447390344295700,6.698295654296875,-0.0025482177734375,0.285247802734375,-0.5053863525390625
1758447390354268700,6.7082685546875,0.0599212646484375,0.174957275390625,-0.5592803955078125
1758447390364240600,6.71824072265625,0.0565185546875,0.097686767578125,-0.5031280517578125
1758447390374212900,6.728212890625,-0.0781707763671875,0.076690673828125,-0.4213409423828125
1758447390384184800,6.738184814453125,-0.090179443359375,0.1307525634765625,-0.4913330078125
1758447390394157600,6.748157470703125,-0.1178741455078125,0.1690521240234375,-0.5639495849609375
1758447390404129800,6.7581298828125,-0.2863311767578125,0.2137451171875,-0.58746337890625
1758447390414101800,6.768101806640625,-0.1541748046875,0.266021728515625,-0.6467437744140625
1758447390424073700,6.77807373046875,-0.20147705078125,0.2175140380859375,-0.605010986328125
1758447390434046700,6.788046630859375,-0.198760986328125,0.19635009765625,-0.48663330078125
1758447390444019000,6.79801904296875,-0.139617919921875,0.2600860595703125,-0.6779327392578125
1758447390453990700,6.80799072265625,-0.145355224609375,0.2208251953125,-0.9651031494140625
1758447390463963600,6.817963623046875,-0.0942535400390625,0.26300048828125,-1.00927734375
1758447390473936000,6.827935791015625,-0.1277923583984375,0.3033905029296875,-1.1426849365234375
1758447390483907600,6.837907470703125,-0.0732421875,0.3725433349609375,-1.18096923828125
1758447390493879800,6.8478798828125,0.0252532958984375,0.45697021484375,-1.2362823486328125
1758447390503852800,6.857852783203125,0.1062164306640625,0.504852294921875,-1.0556793212890625
1758447390513824800,6.86782470703125,0.20684814453125,0.4333953857421875,-0.8834686279296875
1758447390523796700,6.877796630859375,0.0919952392578125,0.351776123046875,-0.9772186279296875
1758447390533769700,6.887769775390625,-0.342498779296875,0.4423828125,-1.1877899169921875
1758447390543741700,6.89774169921875,-0.420074462890625,0.534088134765625,-1.2213134765625
1758447390553714000,6.9077138671875,-0.3362884521484375,0.5620880126953125,-1.13262939453125
1758447390563685600,6.917685546875,-0.3050384521484375,0.580108642578125,-1.03521728515625
1758447390573658600,6.92765869140625,-0.130523681640625,0.5997772216796875,-0.9203948974609375
1758447390583630800,6.937630859375,0.166229248046875,0.622406005859375,-0.784088134765625
1758447390593602600,6.9476025390625,0.31634521484375,0.5415802001953125,-0.657623291015625
1758447390603575800,6.957575927734375,0.2260589599609375,0.4570159912109375,-0.63714599609375
1758447390613547800,6.9675478515625,0.1356201171875,0.420623779296875,-0.6824493408203125
1758447390623519700,6.977519775390625,0.0791473388671875,0.3831939697265625,-0.808685302734375
1758447390633491700,6.98749169921875,0.0235137939453125,0.3873138427734375,-0.9192047119140625
1758447390643464700,6.997464599609375,-0.019378662109375,0.3893280029296875,-0.8333587646484375
1758447390653436700,7.007436767578125,-0.059967041015625,0.43426513671875,-0.739990234375
1758447390663408600,7.01740869140625,-0.1096649169921875,0.517425537109375,-0.696868896484375
1758447390673382000,7.0273818359375,-0.0901336669921875,0.613922119140625,-0.6616668701171875
1758447390683353600,7.037353515625,-0.0553131103515625,0.6850128173828125,-0.605926513671875
1758447390693325800,7.047325927734375,0.02325439453125,0.731964111328125,-0.591217041015625
1758447390703297800,7.0572978515625,0.02618408203125,0.7736663818359375,-0.6204376220703125
1758447390713270800,7.067270751953125,-0.0040435791015625,0.8141632080078125,-0.645172119140625
1758447390723242800,7.07724267578125,0.0187530517578125,0.8580474853515625,-0.6294097900390625
1758447390733215000,7.087215087890625,-0.025726318359375,0.8733673095703125,-0.5911712646484375
1758447390743187700,7.097187744140625,-0.11260986328125,0.790679931640625,-0.5834808349609375
1758447390753159400,7.107159423828125,-0.108642578125,0.6721038818359375,-0.5637359619140625
1758447390763131600,7.117131591796875,0.0272369384765625,0.66119384765625,-0.55352783203125
1758447390773103400,7.127103271484375,0.0814208984375,0.7428436279296875,-0.5693359375
1758447390783076600,7.13707666015625,0.0261383056640625,0.7716217041015625,-0.5734100341796875
1758447390793048600,7.147048583984375,-0.0196533203125,0.6225433349609375,-0.6539306640625
1758447390803020500,7.1570205078125,0.01776123046875,0.5999908447265625,-0.6269683837890625
1758447390812993500,7.16699365234375,0.0505218505859375,0.651519775390625,-0.576385498046875
1758447390822965500,7.176965576171875,0.035980224609375,0.7109832763671875,-0.5277099609375
1758447390832937500,7.1869375,0.0202484130859375,0.7661590576171875,-0.439483642578125
1758447390842909700,7.19690966796875,0.00830078125,0.7941131591796875,-0.36376953125
1758447390852882700,7.206882568359375,0.009307861328125,0.8037109375,-0.3342132568359375
1758447390862854400,7.2168544921875,0.0078277587890625,0.79632568359375,-0.2987823486328125
1758447390872826600,7.22682666015625,-0.0146331787109375,0.744140625,-0.233612060546875
1758447390882798600,7.236798583984375,-0.0488739013671875,0.659210205078125,-0.146392822265625
1758447390892771600,7.246771484375,-0.0569000244140625,0.51531982421875,-0.0843505859375
1758447390902743600,7.25674365234375,-0.0440673828125,0.41632080078125,-0.071929931640625
1758447390912715800,7.2667158203125,-0.025970458984375,0.338226318359375,-0.0581207275390625
1758447390922688500,7.2766884765625,-0.023773193359375,0.2792205810546875,-0.0338592529296875
1758447390932660500,7.286660400390625,-0.02972412109375,0.244903564453125,-0.0142669677734375
1758447390942632700,7.2966328125,-0.01312255859375,0.214263916015625,-0.004119873046875
1758447390952604400,7.3066044921875,0.0198211669921875,0.2005157470703125,0.0015106201171875
1758447390962577700,7.31657763671875,-0.0028076171875,0.1784820556640625,0.01458740234375
1758447390972549600,7.326549560546875,0.05975341796875,0.19134521484375,0.012054443359375
1758447390982521600,7.336521484375,0.094085693359375,1.3926544189453125,-0.0417633056640625
1758447390992494600,7.34649462890625,0.146514892578125,3.30657958984375,0.396728515625
1758447391002466600,7.356466552734375,-0.0599365234375,3.7266387939453125,0.850067138671875
1758447391012438500,7.3664384765625,-0.035186767578125,3.9192657470703125,0.3591156005859375
1758447391022410800,7.37641064453125,0.37689208984375,3.098663330078125,-0.34783935546875
1758447391032383700,7.3863837890625,0.449432373046875,2.222564697265625,-0.7597198486328125
1758447391042355500,7.39635546875,0.113037109375,1.689300537109375,-0.64593505859375
1758447391052327700,7.40632763671875,-0.2480316162109375,1.1886444091796875,-0.3855743408203125
1758447391062300700,7.41630078125,-0.5598907470703125,0.96710205078125,-0.1150054931640625
1758447391072272600,7.426272705078125,-0.8309326171875,0.83966064453125,0.197265625
1758447391082244600,7.43624462890625,-0.938568115234375,0.65423583984375,0.3140411376953125
1758447391092216600,7.446216552734375,-0.8477630615234375,0.44464111328125,0.3602447509765625
1758447391102189600,7.456189453125,-0.5902862548828125,0.3747100830078125,0.3609466552734375
1758447391112161500,7.46616162109375,-0.3646240234375,0.4521331787109375,0.39996337890625
1758447391122133500,7.476133544921875,-0.2092742919921875,0.6602630615234375,0.473236083984375
1758447391132106500,7.4861064453125,-0.0250396728515625,0.9228363037109375,0.5172271728515625
1758447391142078700,7.49607861328125,0.1827545166015625,1.1077728271484375,0.5199737548828125
1758447391152050400,7.506050537109375,0.2920684814453125,1.1602630615234375,0.47418212890625
1758447391162022700,7.516022705078125,0.2738494873046875,1.115966796875,0.41741943359375
1758447391171995600,7.52599560546875,0.210479736328125,1.0338287353515625,0.364471435546875
1758447391181967600,7.535967529296875,0.1107635498046875,0.965667724609375,0.3131866455078125
1758447391191939600,7.545939697265625,0.027618408203125,0.9498291015625,0.2874603271484375
1758447391201912600,7.55591259765625,-0.0293426513671875,0.9669647216796875,0.2727203369140625
1758447391211884500,7.565884521484375,-0.085235595703125,0.993377685546875,0.2486572265625
1758447391221856500,7.5758564453125,-0.137359619140625,1.0096588134765625,0.2332916259765625
1758447391231828700,7.585828857421875,-0.1535797119140625,1.0008697509765625,0.2196044921875
1758447391241801500,7.595801513671875,-0.1420135498046875,0.9742431640625,0.2032623291015625
1758447391251773700,7.605773681640625,-0.138214111328125,0.9582366943359375,0.190185546875
1758447391261745700,7.61574560546875,-0.136962890625,0.9538421630859375,0.1819610595703125
1758447391271718400,7.625718505859375,-0.1269683837890625,0.95849609375,0.1750946044921875
1758447391281690600,7.635690673828125,-0.1258392333984375,0.9593963623046875,0.17254638671875
1758447391291662600,7.64566259765625,-0.1239166259765625,0.97918701171875,0.16949462890625
1758447391301634600,7.655634521484375,-0.124847412109375,1.0089569091796875,0.186737060546875
1758447391311607600,7.665607666015625,-0.13287353515625,0.997650146484375,0.178924560546875
1758447391321579800,7.675579833984375,-0.1399383544921875,0.9752197265625,0.1608428955078125
1758447391331551500,7.685551513671875,-0.1443328857421875,0.974517822265625,0.175537109375
1758447391341524500,7.6955244140625,-0.1265869140625,0.9654998779296875,0.1668701171875
1758447391351496700,7.70549658203125,-0.0965118408203125,0.9661407470703125,0.16015625
1758447391361468700,7.71546875,-0.0693511962890625,0.9746246337890625,0.15325927734375
1758447391371440600,7.725440673828125,-0.0517730712890625,0.9776763916015625,0.15130615234375
1758447391381413600,7.73541357421875,-0.0398406982421875,0.976348876953125,0.1555328369140625
1758447391391385600,7.745385498046875,-0.025238037109375,0.969268798828125,0.16107177734375
1758447391401357600,7.755357666015625,-0.011505126953125,0.95849609375,0.1697845458984375
1758447391411329500,7.76532958984375,-0.0073394775390625,0.958099365234375,0.184906005859375
1758447391421302500,7.775302490234375,-0.0096435546875,0.964630126953125,0.20013427734375
1758447391431274800,7.785274658203125,-0.003448486328125,0.9773712158203125,0.20361328125
1758447391441246500,7.79524658203125,-0.010955810546875,0.9797515869140625,0.2056732177734375
1758447391451219500,7.805219482421875,-0.058502197265625,0.972625732421875,0.2384185791015625
1758447391461191700,7.815191650390625,-0.06591796875,0.96746826171875,0.24090576171875
1758447391471163400,7.825163330078125,-0.054779052734375,0.9646759033203125,0.236358642578125
1758447391481135600,7.835135498046875,-0.048583984375,0.9683380126953125,0.237213134765625
1758447391491108600,7.845108642578125,-0.04364013671875,0.9704437255859375,0.23785400390625
1758447391501080600,7.85508056640625,-0.0391387939453125,0.9740447998046875,0.235626220703125
1758447391511052500,7.865052490234375,-0.0392303466796875,0.9774627685546875,0.2315826416015625
1758447391521025500,7.875025634765625,-0.0432281494140625,0.9794921875,0.2265472412109375
1758447391530997500,7.88499755859375,-0.0522003173828125,0.97772216796875,0.2191162109375
1758447391540969700,7.8949697265625,-0.063934326171875,0.975189208984375,0.2135162353515625
1758447391550941400,7.90494140625,-0.0802001953125,0.9735107421875,0.2140960693359375
1758447391560914400,7.91491455078125,-0.0968780517578125,0.9763336181640625,0.2215118408203125
1758447391570886700,7.92488671875,-0.112335205078125,0.980438232421875,0.232879638671875
1758447391580858400,7.9348583984375,-0.1198883056640625,0.9753875732421875,0.2416534423828125
1758447391590831600,7.94483154296875,-0.122283935546875,0.968994140625,0.250396728515625
1758447391600803600,7.954803466796875,-0.1168670654296875,0.959228515625,0.254302978515625
1758447391610775600,7.964775634765625,-0.1113739013671875,0.95703125,0.2606201171875
1758447391620747500,7.97474755859375,-0.1171112060546875,0.9578094482421875,0.2678375244140625
1758447391630720500,7.984720458984375,-0.110687255859375,0.987884521484375,0.2715301513671875
1758447391640692500,7.9946923828125,-0.096923828125,0.9921417236328125,0.25592041015625
1758447391650664400,8.00466455078125,-0.1346588134765625,1.0303955078125,0.3144378662109375
1758447391660637700,8.0146376953125,-0.1674346923828125,1.083343505859375,0.3669891357421875
1758447391670609400,8.024609375,-0.1646270751953125,1.0677947998046875,0.3701324462890625
1758447391680581600,8.03458154296875,-0.125457763671875,0.9745635986328125,0.32220458984375
1758447391690553600,8.0445537109375,-0.0572967529296875,0.8233795166015625,0.2387237548828125
1758447391700526600,8.054526611328125,-0.005523681640625,0.7141265869140625,0.182464599609375
1758447391710498600,8.06449853515625,0.0155029296875,0.7068634033203125,0.1450653076171875
1758447391720470800,8.074470703125,0.007659912109375,0.8042449951171875,0.1385650634765625
1758447391730443500,8.084443603515625,-0.0241241455078125,0.921478271484375,0.1566619873046875
1758447391740415500,8.09441552734375,-0.055206298828125,0.9819183349609375,0.1556854248046875
1758447391750387700,8.1043876953125,-0.0851593017578125,1.024169921875,0.1643524169921875
1758447391760359700,8.114359619140625,-0.1195831298828125,1.075775146484375,0.1858673095703125
1758447391770333000,8.1243330078125,-0.14349365234375,1.1070098876953125,0.202880859375
1758447391780305000,8.134304931640624,-0.1436767578125,1.1085968017578125,0.216156005859375
1758447391790276900,8.14427685546875,-0.1197662353515625,1.0754547119140625,0.2422943115234375
1758447391800249900,8.154249755859375,-0.0874481201171875,1.0135498046875,0.264617919921875
1758447391810221800,8.164221923828125,-0.0633544921875,0.963653564453125,0.2873382568359375
1758447391820193800,8.17419384765625,-0.0499267578125,0.929443359375,0.3050384521484375
1758447391830165800,8.184165771484375,-0.041015625,0.906829833984375,0.314300537109375
1758447391840139000,8.194138916015625,-0.0351715087890625,0.895355224609375,0.31500244140625
1758447391850110700,8.20411083984375,-0.0390625,0.89642333984375,0.307830810546875
1758447391860083000,8.2140830078125,-0.05169677734375,0.91094970703125,0.29071044921875
1758447391870055000,8.224054931640625,-0.0685882568359375,0.9305419921875,0.2656402587890625
1758447391880027600,8.234027587890624,-0.0858917236328125,0.9471435546875,0.241607666015625
1758447391890000000,8.243999755859376,-0.1021728515625,0.9668731689453125,0.2255706787109375
1758447391899971800,8.253971923828125,-0.121124267578125,0.9836273193359375,0.21221923828125
1758447391909944800,8.26394482421875,-0.1260986328125,0.988555908203125,0.19036865234375
1758447391919916800,8.273916748046876,-0.1209259033203125,0.9877777099609375,0.17352294921875
1758447391929889000,8.283888916015625,-0.110076904296875,0.9878692626953125,0.161773681640625
1758447391939860700,8.29386083984375,-0.09808349609375,0.9886932373046875,0.155059814453125
1758447391949834000,8.303833984375,-0.08892822265625,0.987548828125,0.1504669189453125
1758447391959806000,8.313805908203125,-0.0796966552734375,0.9797515869140625,0.1511077880859375
1758447391969778000,8.32377783203125,-0.0741729736328125,0.9696807861328125,0.1586761474609375
1758447391979751000,8.3337509765625,-0.07049560546875,0.965484619140625,0.1817169189453125
1758447391989723000,8.343722900390626,-0.072357177734375,0.9670257568359375,0.211761474609375
1758447391999694800,8.35369482421875,-0.0671234130859375,0.9675750732421875,0.2407989501953125
1758447392009666800,8.363666748046874,-0.05267333984375,0.965179443359375,0.263031005859375
1758447392019640000,8.37364013671875,-0.0346832275390625,0.9613800048828125,0.2798919677734375
1758447392029611800,8.38361181640625,-0.02056884765625,0.9591827392578125,0.2899932861328125
1758447392039584000,8.393583984375,-0.007293701171875,0.956939697265625,0.2863616943359375
1758447392049557000,8.403556884765624,-0.0081787109375,0.9596099853515625,0.27984619140625
1758447392059528700,8.41352880859375,-0.021942138671875,0.9649810791015625,0.2694091796875
1758447392069501000,8.4235009765625,-0.04949951171875,0.967071533203125,0.2545623779296875
1758447392079473000,8.433472900390624,-0.074798583984375,0.9683990478515625,0.24420166015625
1758447392089446000,8.44344580078125,-0.0933685302734375,0.968536376953125,0.23516845703125
1758447392099417900,8.45341796875,-0.107635498046875,0.9652099609375,0.229278564453125
1758447392109389800,8.463389892578125,-0.114105224609375,0.9633331298828125,0.2277374267578125
1758447392119362800,8.47336279296875,-0.116912841796875,0.9657745361328125,0.2298431396484375
1758447392129335000,8.4833349609375,-0.1162109375,0.9689178466796875,0.232818603515625
1758447392139306800,8.493306640625,-0.1111297607421875,0.9682159423828125,0.2347564697265625
1758447392149279000,8.503279052734374,-0.097869873046875,0.965850830078125,0.2376708984375
1758447392159252000,8.513251953125,-0.080657958984375,0.9615020751953125,0.2399749755859375
1758447392169223700,8.5232236328125,-0.06884765625,0.9614715576171875,0.24493408203125
1758447392179196000,8.53319580078125,-0.061248779296875,0.963165283203125,0.248077392578125
1758447392189169000,8.5431689453125,-0.0532684326171875,0.9638824462890625,0.24554443359375
1758447392199140900,8.553140869140625,-0.0518035888671875,0.96624755859375,0.2413330078125
1758447392209112800,8.56311279296875,-0.05487060546875,0.9720306396484375,0.242431640625
1758447392219085000,8.5730849609375,-0.0623016357421875,0.97772216796875,0.2450103759765625
1758447392229057800,8.583057861328125,-0.0762176513671875,0.9834136962890625,0.244049072265625
1758447392239029800,8.59302978515625,-0.08538818359375,0.9798583984375,0.2367401123046875
1758447392249002000,8.603001953125,-0.0883026123046875,0.967987060546875,0.22412109375
1758447392258974700,8.612974609375,-0.0864715576171875,0.9611358642578125,0.2090606689453125
1758447392268947000,8.622947021484375,-0.0901641845703125,0.9637451171875,0.199798583984375
1758447392278919000,8.6329189453125,-0.0975189208984375,0.9679412841796875,0.1971435546875
1758447392288891000,8.642890869140626,-0.102020263671875,0.9728546142578125,0.1967926025390625
1758447392298863900,8.65286376953125,-0.104766845703125,0.9711456298828125,0.2011566162109375
1758447392308836000,8.662836181640625,-0.1034698486328125,0.9646453857421875,0.210113525390625
1758447392318807800,8.672807861328126,-0.09698486328125,0.9615478515625,0.2171630859375
1758447392328780800,8.68278076171875,-0.084014892578125,0.9614105224609375,0.224456787109375
1758447392338753000,8.6927529296875,-0.070343017578125,0.96337890625,0.228759765625
1758447392348724700,8.702724853515624,-0.0625,0.9646759033203125,0.2332916259765625
1758447392358697000,8.712697021484376,-0.0546875,0.96484375,0.23785400390625
1758447392368670000,8.722669921875,-0.050018310546875,0.967926025390625,0.243072509765625
1758447392378642000,8.732641845703125,-0.04339599609375,0.9718170166015625,0.2455596923828125
1758447392388614000,8.74261376953125,-0.03717041015625,0.9787139892578125,0.243560791015625
1758447392398587000,8.7525869140625,-0.03460693359375,0.9759521484375,0.2382049560546875
1758447392408558800,8.762558837890625,-0.0417327880859375,0.971405029296875,0.2314300537109375
1758447392418530800,8.77253076171875,-0.0572662353515625,0.9668731689453125,0.2265777587890625
1758447392428502800,8.782502685546875,-0.0720062255859375,0.960723876953125,0.224578857421875
1758447392438475800,8.792475830078125,-0.087127685546875,0.96051025390625,0.2260284423828125
1758447392448448000,8.802447998046874,-0.0951690673828125,0.96551513671875,0.2300567626953125
1758447392458419700,8.812419677734376,-0.0986480712890625,0.969696044921875,0.231109619140625
1758447392468393000,8.82239306640625,-0.1009063720703125,0.974761962890625,0.23199462890625
1758447392478365000,8.832364990234375,-0.102569580078125,0.9788970947265625,0.233551025390625
1758447392488337000,8.8423369140625,-0.102508544921875,0.9647674560546875,0.23199462890625
1758447392498308900,8.852308837890625,-0.0962066650390625,0.9494171142578125,0.2286376953125
1758447392508281900,8.86228173828125,-0.09423828125,0.9552764892578125,0.2327423095703125
1758447392518253800,8.87225390625,-0.09405517578125,0.964813232421875,0.2365875244140625
1758447392528225800,8.882225830078125,-0.091064453125,0.97430419921875,0.2413177490234375
1758447392538199000,8.892198974609375,-0.08941650390625,0.97119140625,0.25103759765625
1758447392548170800,8.902170654296874,-0.0836181640625,0.9587554931640625,0.2534332275390625
1758447392558143000,8.91214306640625,-0.08154296875,0.9570770263671875,0.2582855224609375
1758447392568114700,8.92211474609375,-0.082916259765625,0.969329833984375,0.267669677734375
1758447392578087700,8.932087646484375,-0.083038330078125,0.964447021484375,0.2679290771484375
1758447392588060000,8.942059814453126,-0.074951171875,0.9560394287109375,0.261383056640625
1758447392598032000,8.952031982421875,-0.0670928955078125,0.9593505859375,0.2484893798828125
1758447392608003800,8.96200390625,-0.06817626953125,0.965362548828125,0.236114501953125
1758447392617976800,8.971976806640624,-0.07391357421875,0.959991455078125,0.227569580078125
1758447392627948800,8.98194873046875,-0.083343505859375,0.9595794677734375,0.2187652587890625
1758447392637920800,8.991920654296875,-0.089874267578125,0.9649658203125,0.2158966064453125
1758447392647894000,9.00189404296875,-0.0953826904296875,0.96954345703125,0.2161865234375
1758447392657865700,9.01186572265625,-0.095428466796875,0.9704132080078125,0.2169647216796875
1758447392667838000,9.021837890625,-0.0948333740234375,0.9677886962890625,0.2191619873046875
1758447392677810000,9.031809814453124,-0.0941619873046875,0.9664154052734375,0.220672607421875
1758447392687782700,9.04178271484375,-0.093902587890625,0.962615966796875,0.220947265625
1758447392697755000,9.0517548828125,-0.0892791748046875,0.962158203125,0.223358154296875
1758447392707726800,9.061726806640625,-0.0807342529296875,0.9644622802734375,0.2262420654296875
1758447392717699800,9.071699951171874,-0.07177734375,0.96875,0.2301788330078125
1758447392727671800,9.081671875,-0.067413330078125,0.9734039306640625,0.234954833984375
1758447392737644000,9.09164404296875,-0.0673980712890625,0.9774627685546875,0.241180419921875
1758447392747615700,9.10161572265625,-0.071197509765625,0.9788665771484375,0.242950439453125
1758447392757589000,9.111589111328126,-0.0729827880859375,0.973907470703125,0.2421417236328125
1758447392767561200,9.121561279296875,-0.0712738037109375,0.9651336669921875,0.242462158203125
1758447392777533000,9.131532958984375,-0.0647430419921875,0.959197998046875,0.2348785400390625
1758447392787506200,9.141506103515624,-0.0624237060546875,0.9592132568359375,0.2286529541015625
1758447392797478100,9.15147802734375,-0.0694427490234375,0.9625701904296875,0.226806640625
1758447392807450000,9.1614501953125,-0.08392333984375,0.96600341796875,0.2283172607421875
1758447392817422000,9.171422119140624,-0.0996551513671875,0.9669647216796875,0.2353363037109375
1758447392827395000,9.18139501953125,-0.10626220703125,0.9658203125,0.2451019287109375
1758447392837367000,9.191366943359375,-0.10491943359375,0.9593658447265625,0.2502288818359375
1758447392847339300,9.20133935546875,-0.0958251953125,0.95587158203125,0.2490692138671875
1758447392857312000,9.21131201171875,-0.086883544921875,0.956024169921875,0.2425689697265625
1758447392867284000,9.221283935546875,-0.0845489501953125,0.9582672119140625,0.236572265625
1758447392877256200,9.231256103515625,-0.0886077880859375,0.9627227783203125,0.2317962646484375
1758447392887229000,9.24122900390625,-0.0919952392578125,0.9662017822265625,0.2311553955078125
1758447392897201200,9.251201171875,-0.0909423828125,0.9647979736328125,0.230865478515625
1758447392907173000,9.261173095703125,-0.0836944580078125,0.9649810791015625,0.230316162109375
1758447392917145000,9.27114501953125,-0.0765380859375,0.9683685302734375,0.2297210693359375
1758447392927118000,9.2811181640625,-0.0698394775390625,0.9677581787109375,0.2299346923828125
1758447392937090000,9.291090087890625,-0.06646728515625,0.9691619873046875,0.23162841796875
1758447392947062000,9.30106201171875,-0.066375732421875,0.9718475341796875,0.233062744140625
1758447392957034000,9.311033935546876,-0.066741943359375,0.9741668701171875,0.2354583740234375
1758447392967007200,9.32100732421875,-0.0692901611328125,0.968658447265625,0.240447998046875
1758447392976979000,9.33097900390625,-0.0726165771484375,0.9628753662109375,0.242919921875
1758447392986951200,9.340951171875,-0.075958251953125,0.9624786376953125,0.2427215576171875
1758447392996924200,9.350924072265625,-0.077880859375,0.96026611328125,0.2382659912109375
1758447393006896000,9.360896240234375,-0.0847625732421875,0.9588165283203125,0.2358245849609375
1758447393016868000,9.3708681640625,-0.0954437255859375,0.961822509765625,0.2376556396484375
1758447393026840000,9.380840087890626,-0.1015472412109375,0.9683380126953125,0.2419281005859375
1758447393036813000,9.39081298828125,-0.10015869140625,0.9691619873046875,0.2478179931640625
1758447393046785000,9.400784912109375,-0.08819580078125,0.9650726318359375,0.248077392578125
1758447393056757000,9.410757080078126,-0.071746826171875,0.9605255126953125,0.2441253662109375
1758447393066730000,9.42072998046875,-0.0604705810546875,0.9613189697265625,0.236083984375
1758447393076702200,9.4307021484375,-0.058074951171875,0.96337890625,0.2279510498046875
1758447393086674000,9.440673828125,-0.061431884765625,0.971038818359375,0.2248077392578125
1758447393096646100,9.450646240234375,-0.067779541015625,0.97576904296875,0.22222900390625
1758447393106619100,9.460619140625,-0.0729522705078125,0.97576904296875,0.219573974609375
1758447393116591000,9.470591064453124,-0.0727386474609375,0.9715118408203125,0.2165069580078125
1758447393126563000,9.48056298828125,-0.0693359375,0.9676971435546875,0.213287353515625
1758447393136536000,9.4905361328125,-0.0726318359375,0.9697723388671875,0.2142333984375
1758447393146508000,9.500508056640625,-0.0790863037109375,0.97265625,0.2196044921875
1758447393156480000,9.51047998046875,-0.086669921875,0.9674530029296875,0.22607421875
1758447393166452200,9.5204521484375,-0.088348388671875,0.9609375,0.2308807373046875
1758447393176425000,9.530425048828125,-0.0858917236328125,0.960296630859375,0.23284912109375
1758447393186397200,9.540397216796874,-0.0850372314453125,0.95904541015625,0.2357025146484375
1758447393196369200,9.550369140625,-0.0858154296875,0.9640350341796875,0.2403717041015625
1758447393206342000,9.560341796875,-0.088165283203125,0.9676055908203125,0.2457427978515625
1758447393216314000,9.570314208984374,-0.089691162109375,0.96649169921875,0.2480926513671875
1758447393226286000,9.5802861328125,-0.088897705078125,0.960693359375,0.246368408203125
1758447393236258000,9.590258056640625,-0.087890625,0.960235595703125,0.240692138671875
1758447393246231000,9.60023095703125,-0.0853271484375,0.9603729248046875,0.233001708984375
1758447393256203300,9.610203369140624,-0.0870513916015625,0.9604644775390625,0.228515625
1758447393266175000,9.620175048828125,-0.0893402099609375,0.9636993408203125,0.230224609375
1758447393276148000,9.63014794921875,-0.0913238525390625,0.9668731689453125,0.23779296875
1758447393286120200,9.6401201171875,-0.0914154052734375,0.96563720703125,0.2457275390625
1758447393296092200,9.650092041015625,-0.086273193359375,0.9637298583984375,0.2508392333984375
1758447393306064100,9.660064208984375,-0.0830230712890625,0.96533203125,0.2557525634765625
1758447393316037000,9.670037109375,-0.08099365234375,0.9634857177734375,0.255523681640625
1758447393326009000,9.680009033203126,-0.0783843994140625,0.9608001708984375,0.25323486328125
1758447393335981000,9.68998095703125,-0.0773773193359375,0.96075439453125,0.250213623046875
1758447393345954300,9.699954345703125,-0.0795440673828125,0.9636993408203125,0.2467193603515625
1758447393355926000,9.709926025390626,-0.0825653076171875,0.9679107666015625,0.24407958984375
1758447393365898200,9.719898193359375,-0.083221435546875,0.96929931640625,0.24005126953125
1758447393375870000,9.729869873046875,-0.080413818359375,0.967559814453125,0.2343292236328125
1758447393385843000,9.739843017578124,-0.0775146484375,0.9678497314453125,0.227813720703125
1758447393395815200,9.749815185546876,-0.0759124755859375,0.967987060546875,0.22418212890625
1758447393405787000,9.759786865234375,-0.076019287109375,0.96875,0.22174072265625
1758447393415760100,9.769760009765625,-0.077728271484375,0.9653778076171875,0.2214813232421875
1758447393425732000,9.779732177734376,-0.080291748046875,0.963958740234375,0.2219390869140625
1758447393435704000,9.7897041015625,-0.0833587646484375,0.9638824462890625,0.226531982421875
1758447393445676000,9.799676025390625,-0.0875396728515625,0.968353271484375,0.2321319580078125
1758447393455649000,9.80964892578125,-0.08892822265625,0.9703369140625,0.235198974609375
1758447393465621000,9.81962109375,-0.0876617431640625,0.9666900634765625,0.2393646240234375
1758447393475593200,9.82959326171875,-0.0852813720703125,0.9613037109375,0.23834228515625
1758447393485566200,9.839566162109374,-0.081207275390625,0.960418701171875,0.2371826171875
1758447393495538000,9.849537841796876,-0.081390380859375,0.962982177734375,0.236724853515625
1758447393505510100,9.85951025390625,-0.0843048095703125,0.9658050537109375,0.23455810546875
1758447393515482000,9.869482177734374,-0.087005615234375,0.9681549072265625,0.23602294921875
1758447393525455000,9.879455078125,-0.089813232421875,0.966949462890625,0.236297607421875
1758447393535427000,9.889427001953125,-0.0925140380859375,0.9658355712890625,0.2385406494140625
1758447393545399300,9.8993994140625,-0.0889739990234375,0.9626007080078125,0.2441558837890625
1758447393555372000,9.9093720703125,-0.0872955322265625,0.9618682861328125,0.24725341796875
1758447393565344000,9.919343994140625,-0.08197021484375,0.9609832763671875,0.248046875
1758447393575316200,9.929316162109375,-0.078094482421875,0.9643402099609375,0.24627685546875
1758447393585288000,9.939287841796874,-0.083251953125,0.9667816162109375,0.24725341796875
1758447393595261200,9.94926123046875,-0.092681884765625,0.96783447265625,0.250244140625
1758447393605233200,9.959233154296875,-0.0951080322265625,0.962615966796875,0.2497100830078125
1758447393615205000,9.969205078125,-0.0932159423828125,0.9624786376953125,0.244964599609375
1758447393625178000,9.97917822265625,-0.082366943359375,0.9634857177734375,0.2383575439453125
1758447393635150000,9.989150146484375,-0.07666015625,0.9642181396484375,0.2311248779296875
1758447393645122000,9.9991220703125,-0.0750579833984375,0.9636688232421875,0.223052978515625
1758447393655094300,10.00909423828125,-0.073455810546875,0.9659271240234375,0.2157135009765625
1758447393665067300,10.0190673828125,-0.07598876953125,0.9661865234375,0.2130126953125
1758447393675039000,10.0290390625,-0.077972412109375,0.96844482421875,0.213043212890625
1758447393685011200,10.03901123046875,-0.078216552734375,0.9699859619140625,0.2155303955078125
1758447393694984200,10.048984130859376,-0.0785064697265625,0.9730987548828125,0.2197418212890625
1758447393704956200,10.0589560546875,-0.074249267578125,0.97479248046875,0.2260894775390625
1758447393714928000,10.06892822265625,-0.071746826171875,0.970672607421875,0.23187255859375
1758447393724900000,10.078900146484376,-0.06903076171875,0.9661407470703125,0.23175048828125
1758447393734873000,10.088873046875,-0.066162109375,0.9645538330078125,0.2313385009765625
1758447393744845000,10.098844970703125,-0.0670928955078125,0.9676971435546875,0.228668212890625
1758447393754817000,10.108817138671874,-0.067169189453125,0.9697418212890625,0.22625732421875
1758447393764790000,10.1187900390625,-0.0706787109375,0.9701995849609375,0.22344970703125
1758447393774762000,10.128761962890625,-0.0727691650390625,0.9686431884765625,0.22564697265625
1758447393784734000,10.13873388671875,-0.07635498046875,0.967254638671875,0.2286529541015625
1758447393794706200,10.1487060546875,-0.0794830322265625,0.9694671630859375,0.23199462890625
1758447393804679000,10.158678955078125,-0.0806884765625,0.967041015625,0.2328338623046875
1758447393814651100,10.168651123046875,-0.0807342529296875,0.9656524658203125,0.2332916259765625
1758447393824623000,10.178623046875,-0.0784149169921875,0.962921142578125,0.2319183349609375
1758447393834595800,10.188595947265625,-0.080535888671875,0.9609832763671875,0.2304229736328125
1758447393844568000,10.198568115234375,-0.083221435546875,0.9597015380859375,0.2332763671875
1758447393854540000,10.2085400390625,-0.0841217041015625,0.9562225341796875,0.2348785400390625
1758447393864512000,10.218511962890625,-0.08612060546875,0.9596099853515625,0.2382049560546875
1758447393874485000,10.228485107421875,-0.084259033203125,0.9672088623046875,0.2425994873046875
1758447393884457200,10.238457275390624,-0.080322265625,0.968231201171875,0.2462158203125
1758447393894429000,10.248428955078126,-0.0728607177734375,0.9659881591796875,0.2462310791015625
1758447393904402000,10.25840185546875,-0.063079833984375,0.968353271484375,0.2384033203125
1758447393914374100,10.2683740234375,-0.060760498046875,0.97052001953125,0.2325286865234375
1758447393924345900,10.278345947265626,-0.06182861328125,0.973388671875,0.2235565185546875
1758447393934318000,10.288318115234375,-0.0675201416015625,0.97259521484375,0.22186279296875
1758447393944291000,10.298291015625,-0.0731048583984375,0.97174072265625,0.223602294921875
1758447393954263000,10.308262939453124,-0.0765228271484375,0.9688720703125,0.2253265380859375
1758447393964235000,10.318235107421875,-0.0738067626953125,0.9640655517578125,0.2249298095703125
1758447393974208000,10.3282080078125,-0.0672607421875,0.9632415771484375,0.2257080078125
1758447393984180000,10.338179931640624,-0.0643310546875,0.9655303955078125,0.2260894775390625
1758447393994152200,10.348152099609376,-0.067901611328125,0.9639892578125,0.22857666015625
1758447394004124000,10.3581240234375,-0.0725250244140625,0.964935302734375,0.2319183349609375
1758447394014097000,10.368096923828125,-0.0784912109375,0.965240478515625,0.23602294921875
1758447394024069000,10.378069091796876,-0.08062744140625,0.9674835205078125,0.24139404296875
1758447394034040800,10.388040771484375,-0.0782470703125,0.9689483642578125,0.24542236328125
1758447394044014000,10.39801416015625,-0.0738983154296875,0.965240478515625,0.245330810546875
1758447394053986000,10.407986083984374,-0.0709381103515625,0.961944580078125,0.242034912109375
1758447394063958000,10.4179580078125,-0.0705718994140625,0.9583740234375,0.2355194091796875
1758447394073930000,10.427929931640625,-0.0721893310546875,0.9619903564453125,0.2278289794921875
1758447394083903000,10.437903076171875,-0.0727691650390625,0.9703216552734375,0.2237396240234375
1758447394093875000,10.447875,-0.0722503662109375,0.97479248046875,0.220855712890625
1758447394103847000,10.457846923828125,-0.071685791015625,0.97283935546875,0.2194061279296875
1758447394113820200,10.467820068359375,-0.073883056640625,0.97125244140625,0.2229461669921875
1758447394123792000,10.4777919921875,-0.0768280029296875,0.9695587158203125,0.224395751953125
1758447394133764000,10.48776416015625,-0.0747528076171875,0.9629974365234375,0.222900390625
1758447394143735800,10.49773583984375,-0.0743255615234375,0.9610137939453125,0.22650146484375
1758447394153709000,10.507708984375,-0.0791473388671875,0.9683990478515625,0.2353363037109375
1758447394163681000,10.517680908203126,-0.082672119140625,0.9708404541015625,0.24212646484375
1758447394173653000,10.527653076171875,-0.082977294921875,0.967559814453125,0.2441558837890625
1758447394183626000,10.5376259765625,-0.0741729736328125,0.9634857177734375,0.240509033203125
1758447394193598000,10.547597900390626,-0.064910888671875,0.963226318359375,0.2343597412109375
1758447394203570000,10.55756982421875,-0.061553955078125,0.96612548828125,0.2291259765625
1758447394213543000,10.56754296875,-0.068115234375,0.96826171875,0.22613525390625
1758447394223515100,10.57751513671875,-0.075897216796875,0.9685821533203125,0.2261505126953125
1758447394233486800,10.58748681640625,-0.0823211669921875,0.9694671630859375,0.2309112548828125
1758447394243459000,10.597458984375,-0.0830535888671875,0.968536376953125,0.233795166015625
1758447394253432000,10.60743212890625,-0.0795440673828125,0.9670257568359375,0.2363433837890625
1758447394263403800,10.61740380859375,-0.0718841552734375,0.9650115966796875,0.2360687255859375
1758447394273376000,10.6273759765625,-0.0656280517578125,0.9677734375,0.2348480224609375
1758447394283349000,10.637348876953125,-0.0643768310546875,0.9708404541015625,0.2370452880859375
1758447394293321000,10.647321044921876,-0.066650390625,0.9738311767578125,0.238677978515625
1758447394303293000,10.65729296875,-0.0703582763671875,0.9713134765625,0.237701416015625
1758447394313266000,10.667265869140625,-0.075225830078125,0.96624755859375,0.2374114990234375
1758447394323238000,10.67723779296875,-0.075164794921875,0.964202880859375,0.2325592041015625
1758447394333210000,10.687210205078125,-0.0735015869140625,0.962554931640625,0.2278289794921875
1758447394343183000,10.69718310546875,-0.0743865966796875,0.963592529296875,0.2235107421875
1758447394353154800,10.70715478515625,-0.07806396484375,0.965911865234375,0.219818115234375
1758447394363127000,10.717126953125,-0.08111572265625,0.966156005859375,0.2166290283203125
1758447394373099000,10.72709912109375,-0.082183837890625,0.967071533203125,0.215728759765625
1758447394383072000,10.737072021484375,-0.083648681640625,0.96868896484375,0.2137908935546875
1758447394393044000,10.7470439453125,-0.08135986328125,0.9698638916015625,0.2153472900390625
1758447394403016200,10.75701611328125,-0.078094482421875,0.9694366455078125,0.2176513671875
1758447394412989000,10.766989013671875,-0.0778045654296875,0.9697418212890625,0.222991943359375
1758447394422961000,10.7769609375,-0.074737548828125,0.970245361328125,0.2319488525390625
1758447394432933000,10.78693310546875,-0.0717926025390625,0.9652252197265625,0.2393798828125
1758447394442905900,10.79690576171875,-0.066314697265625,0.9651641845703125,0.2427520751953125
1758447394452878000,10.806878173828125,-0.0613250732421875,0.9635009765625,0.242034912109375
1758447394462850000,10.81685009765625,-0.05902099609375,0.9635467529296875,0.24285888671875
1758447394472822800,10.82682275390625,-0.062286376953125,0.9653167724609375,0.2393798828125
1758447394482795000,10.836794921875,-0.066802978515625,0.96820068359375,0.23651123046875
1758447394492767000,10.84676708984375,-0.0719451904296875,0.970489501953125,0.235504150390625
1758447394502739000,10.856739013671875,-0.0754241943359375,0.968475341796875,0.234619140625
1758447394512712000,10.8667119140625,-0.0788726806640625,0.96563720703125,0.228485107421875
1758447394522684200,10.87668408203125,-0.0750579833984375,0.9656524658203125,0.2248687744140625
1758447394532655900,10.88665576171875,-0.0732879638671875,0.966705322265625,0.2217254638671875
1758447394542629000,10.896629150390625,-0.071197509765625,0.96868896484375,0.2224884033203125
1758447394552601000,10.90660107421875,-0.0687408447265625,0.971527099609375,0.224517822265625
1758447394562573000,10.916572998046876,-0.066650390625,0.9729461669921875,0.2266693115234375
1758447394572546000,10.926546142578125,-0.0667877197265625,0.971038818359375,0.2308502197265625
1758447394582518000,10.93651806640625,-0.06439208984375,0.9690093994140625,0.2332000732421875
1758447394592490000,10.946489990234374,-0.0577850341796875,0.9658050537109375,0.233612060546875
1758447394602463000,10.956462890625,-0.0576171875,0.965484619140625,0.2306976318359375
1758447394612435200,10.966435302734375,-0.0605010986328125,0.967742919921875,0.2288818359375
1758447394622407000,10.976406982421874,-0.0666961669921875,0.96527099609375,0.227020263671875
1758447394632380000,10.9863798828125,-0.0737762451171875,0.9656829833984375,0.2263641357421875
1758447394642352000,10.99635205078125,-0.082916259765625,0.9680023193359375,0.2278594970703125
1758447394652323800,11.00632373046875,-0.085479736328125,0.9701995849609375,0.231536865234375
1758447394662297000,11.016297119140624,-0.0848388671875,0.96514892578125,0.23358154296875
1758447394672269000,11.02626904296875,-0.0860595703125,0.9638519287109375,0.2362823486328125
1758447394682241000,11.036240966796875,-0.0887908935546875,0.9626312255859375,0.2402191162109375
1758447394692213000,11.046212890625,-0.088897705078125,0.9622650146484375,0.2431182861328125
1758447394702186000,11.05618603515625,-0.0826416015625,0.960693359375,0.24005126953125
1758447394712158000,11.066157958984375,-0.0727996826171875,0.964874267578125,0.232421875
1758447394722130200,11.076130126953124,-0.0679473876953125,0.969970703125,0.22564697265625
1758447394732103200,11.086103271484374,-0.069305419921875,0.9732666015625,0.22259521484375
1758447394742075000,11.096074951171875,-0.073974609375,0.9720001220703125,0.2230224609375
1758447394752047000,11.106047119140625,-0.0739288330078125,0.9687042236328125,0.2234344482421875
1758447394762019600,11.11601953125,-0.0695037841796875,0.9676666259765625,0.2232208251953125
1758447394771991800,11.12599169921875,-0.0662689208984375,0.967010498046875,0.2233123779296875
1758447394781963500,11.135963623046875,-0.06561279296875,0.9680023193359375,0.2269287109375
1758447394791936500,11.1459365234375,-0.06781005859375,0.9660491943359375,0.229400634765625
1758447394801908700,11.15590869140625,-0.06561279296875,0.9622039794921875,0.22845458984375
1758447394811880700,11.165880615234375,-0.0621185302734375,0.9661102294921875,0.2259368896484375
1758447394821852700,11.175852783203124,-0.061431884765625,0.968231201171875,0.224395751953125
1758447394831825700,11.18582568359375,-0.061126708984375,0.9707794189453125,0.2263031005859375
1758447394841797600,11.195797607421875,-0.059326171875,0.9737091064453125,0.227691650390625
1758447394851769600,11.20576953125,-0.0574493408203125,0.974151611328125,0.2278289794921875
1758447394861742800,11.215742919921874,-0.0605010986328125,0.9721832275390625,0.225494384765625
1758447394871714600,11.225714599609375,-0.067718505859375,0.970428466796875,0.223602294921875
1758447394881686800,11.235686767578125,-0.073272705078125,0.9684295654296875,0.2250518798828125
1758447394891659800,11.24565966796875,-0.0757904052734375,0.9630126953125,0.227691650390625
1758447394901631500,11.255631591796876,-0.0728759765625,0.9603424072265625,0.22802734375
1758447394911603700,11.265603759765625,-0.06951904296875,0.962860107421875,0.2281494140625
1758447394921576700,11.27557666015625,-0.0684661865234375,0.96868896484375,0.2312164306640625
1758447394931548700,11.285548583984376,-0.0691986083984375,0.9688720703125,0.233734130859375
1758447394941520600,11.295520751953125,-0.070556640625,0.9640350341796875,0.2335662841796875
1758447394951493600,11.30549365234375,-0.072052001953125,0.9625091552734375,0.2326507568359375
1758447394961465600,11.315465576171874,-0.075408935546875,0.962188720703125,0.23358154296875
1758447394971437600,11.3254375,-0.07568359375,0.96405029296875,0.2335968017578125
1758447394981409500,11.335409423828125,-0.0726776123046875,0.96380615234375,0.2356414794921875
1758447394991382500,11.345382568359375,-0.0718994140625,0.9628448486328125,0.236328125
1758447395001354800,11.355354736328126,-0.0708160400390625,0.964599609375,0.234588623046875
1758447395011326500,11.365326416015625,-0.069122314453125,0.9668121337890625,0.2339630126953125
1758447395021299700,11.3752998046875,-0.0675201416015625,0.969085693359375,0.2329864501953125
1758447395031271700,11.385271728515624,-0.0654144287109375,0.9695587158203125,0.2340087890625
1758447395041243600,11.39524365234375,-0.0638580322265625,0.968994140625,0.2326202392578125
1758447395051216600,11.405216552734375,-0.0635528564453125,0.9692840576171875,0.2311859130859375
1758447395061188600,11.415188720703124,-0.0616912841796875,0.9714813232421875,0.2266387939453125
1758447395071160600,11.42516064453125,-0.0567779541015625,0.9740142822265625,0.2211456298828125
1758447395081133600,11.435133544921875,-0.0554656982421875,0.9718017578125,0.215576171875
1758447395091105800,11.445105712890625,-0.063201904296875,0.9738311767578125,0.214569091796875
1758447395101077500,11.455077392578126,-0.0742950439453125,0.9741973876953125,0.2177734375
1758447395111049700,11.4650498046875,-0.0811767578125,0.9739837646484375,0.2236480712890625
1758447395121022700,11.475022705078125,-0.0865936279296875,0.9675140380859375,0.232757568359375
1758447395130994400,11.484994384765624,-0.0897674560546875,0.959686279296875,0.24176025390625
1758447395140966700,11.494966552734375,-0.0884246826171875,0.955718994140625,0.25146484375
1758447395150939600,11.504939697265625,-0.0785675048828125,0.9551544189453125,0.2551727294921875
1758447395160911600,11.51491162109375,-0.0675506591796875,0.9581298828125,0.2542572021484375
1758447395170883600,11.524883544921876,-0.0594024658203125,0.9634857177734375,0.2483367919921875
1758447395180856800,11.53485693359375,-0.0551605224609375,0.9664764404296875,0.24261474609375
1758447395190828500,11.54482861328125,-0.055511474609375,0.9677886962890625,0.23858642578125
1758447395200800800,11.55480078125,-0.056121826171875,0.9743499755859375,0.2358551025390625
1758447395210772500,11.5647724609375,-0.055206298828125,0.9892120361328125,0.23406982421875
1758447395220745500,11.574745361328125,-0.0535125732421875,0.9899749755859375,0.228973388671875
1758447395230717700,11.5847177734375,-0.047607421875,0.975982666015625,0.2223052978515625
1758447395240689400,11.594689453125,-0.0455322265625,0.9692230224609375,0.2197265625
1758447395250662700,11.60466259765625,-0.0438079833984375,0.9736175537109375,0.2238006591796875
1758447395260634600,11.614634521484374,-0.0406951904296875,0.977386474609375,0.22808837890625
1758447395270606600,11.624606689453126,-0.037139892578125,0.976318359375,0.2310791015625
1758447395280579600,11.63457958984375,-0.035369873046875,0.97662353515625,0.23577880859375
1758447395290551600,11.644551513671875,-0.0438079833984375,0.9891510009765625,0.2536163330078125
1758447395300523500,11.6545234375,-0.0546112060546875,0.99456787109375,0.26959228515625
1758447395310496500,11.66449658203125,-0.0609283447265625,0.9865264892578125,0.282196044921875
1758447395320468700,11.67446875,-0.0587615966796875,0.970550537109375,0.284423828125
1758447395330440400,11.6844404296875,-0.048919677734375,0.9555206298828125,0.2846527099609375
1758447395340412700,11.69441259765625,-0.0347747802734375,0.9461822509765625,0.2783660888671875
1758447395350385700,11.7043857421875,-0.0145111083984375,0.94219970703125,0.26373291015625
1758447395360357600,11.714357666015625,0.0067138671875,0.9523773193359375,0.24169921875
1758447395370329600,11.72432958984375,0.0198974609375,0.9691162109375,0.2151641845703125
1758447395380302600,11.734302490234375,0.0197906494140625,0.981292724609375,0.1910858154296875
1758447395390274600,11.744274658203125,0.00701904296875,0.9929656982421875,0.1756134033203125
1758447395400246500,11.75424658203125,-0.0142974853515625,0.9986419677734375,0.1676025390625
1758447395410219800,11.7642197265625,-0.0404510498046875,0.9959564208984375,0.1763763427734375
1758447395420191500,11.77419140625,-0.066741943359375,0.984954833984375,0.1899566650390625
1758447395430163700,11.784163818359374,-0.082763671875,0.9686279296875,0.2017974853515625
1758447395440135700,11.7941357421875,-0.099700927734375,0.945770263671875,0.223602294921875
1758447395450108400,11.8041083984375,-0.1076812744140625,0.884490966796875,0.22119140625
1758447395460080600,11.81408056640625,-0.0999908447265625,0.8180084228515625,0.21783447265625
1758447395470052600,11.824052490234376,-0.1185302734375,0.8253936767578125,0.2702789306640625
1758447395480025600,11.834025634765625,-0.13916015625,0.8736724853515625,0.3087615966796875
1758447395489997600,11.84399755859375,-0.133392333984375,0.912872314453125,0.3141937255859375
1758447395499969800,11.8539697265625,-0.1187591552734375,0.955718994140625,0.3256683349609375
1758447395509942500,11.863942626953126,-0.088348388671875,0.9871673583984375,0.3345794677734375
1758447395519914800,11.873914794921875,-0.0594482421875,0.97894287109375,0.3369293212890625
1758447395529886700,11.88388671875,-0.04095458984375,0.95428466796875,0.3433074951171875
1758447395539858700,11.893858642578126,-0.0251312255859375,0.9269866943359375,0.3428497314453125
1758447395549831700,11.903831787109375,-0.016082763671875,0.9225311279296875,0.3352813720703125
1758447395559803600,11.9138037109375,-0.016143798828125,0.9291534423828125,0.3213043212890625
1758447395569775600,11.923775634765626,-0.0263519287109375,0.9270172119140625,0.3007049560546875
1758447395579748600,11.93374853515625,-0.0335693359375,0.912872314453125,0.2819671630859375
1758447395589720800,11.943720947265625,-0.0475616455078125,0.9334564208984375,0.2772216796875
1758447395599692500,11.953692626953124,-0.0719451904296875,0.9778900146484375,0.276580810546875
1758447395609665500,11.96366552734375,-0.101898193359375,0.9856414794921875,0.2657928466796875
1758447395619637800,11.9736376953125,-0.120697021484375,0.96624755859375,0.24835205078125
1758447395629609500,11.983609375,-0.1269378662109375,0.9454498291015625,0.2288970947265625
1758447395639581700,11.993581787109376,-0.132232666015625,0.948150634765625,0.2122344970703125
1758447395649554700,12.0035546875,-0.146240234375,0.9720306396484375,0.19866943359375
1758447395659526700,12.013526611328125,-0.1667327880859375,0.993194580078125,0.1947021484375
1758447395669498600,12.02349853515625,-0.1751556396484375,0.99993896484375,0.1896514892578125
1758447395679471600,12.0334716796875,-0.16827392578125,0.9914398193359375,0.168487548828125
1758447395689443600,12.043443603515625,-0.1610565185546875,0.985687255859375,0.137054443359375
1758447395699415800,12.053415771484374,-0.16058349609375,0.989959716796875,0.113250732421875
1758447395709387500,12.063387451171875,-0.163421630859375,1.0093994140625,0.0961456298828125
1758447395719360500,12.073360595703125,-0.177459716796875,1.027618408203125,0.0930328369140625
1758447395729332700,12.083332763671875,-0.1959991455078125,1.038238525390625,0.0781707763671875
1758447395739304400,12.093304443359376,-0.220001220703125,1.045166015625,0.06573486328125
1758447395749277700,12.103277587890625,-0.2241668701171875,1.0488128662109375,0.0452728271484375
1758447395759250200,12.113250244140625,-0.215179443359375,1.0595855712890625,0.0240325927734375
1758447395769222100,12.12322216796875,-0.200531005859375,1.072174072265625,0.001373291015625
1758447395779195400,12.1331953125,-0.1820220947265625,1.072479248046875,-0.0260772705078125
1758447395789167000,12.1431669921875,-0.135284423828125,1.050537109375,-0.057647705078125
1758447395799139300,12.153139404296875,-0.03900146484375,1.027099609375,-0.0771636962890625
1758447395809111300,12.163111328125,0.0569610595703125,1.011566162109375,-0.0478973388671875
1758447395819084300,12.173084228515625,0.144134521484375,0.9837646484375,-0.0242767333984375
1758447395829056300,12.18305615234375,0.2300262451171875,0.9836578369140625,0.0415496826171875
1758447395839028500,12.193028564453124,0.2464141845703125,0.9756927490234375,0.0779571533203125
1758447395849001200,12.203001220703126,0.1616973876953125,0.983978271484375,0.052337646484375
1758447395858973200,12.21297314453125,0.04510498046875,1.0139617919921875,0.036041259765625
1758447395868945400,12.2229453125,-0.06622314453125,1.0426025390625,0.0236663818359375
1758447395878918100,12.232918212890626,-0.1939697265625,1.0683135986328125,0.0543670654296875
1758447395888890400,12.242890380859375,-0.1992034912109375,1.073974609375,0.075164794921875
1758447395898862300,12.2528623046875,-0.0980987548828125,1.030914306640625,-0.0111541748046875
1758447395908835000,12.2628349609375,-0.079193115234375,1.016937255859375,-0.018035888671875
1758447395918807300,12.272807373046875,-0.11138916015625,0.9860687255859375,-0.0164642333984375
1758447395928779300,12.282779296875,-0.1037445068359375,0.9717254638671875,0.0625762939453125
1758447395938751200,12.292751220703124,-0.026031494140625,0.9373016357421875,0.154327392578125
1758447395948724200,12.30272412109375,0.023773193359375,0.9004058837890625,0.1922760009765625
1758447395958696400,12.312696533203125,0.035308837890625,0.886199951171875,0.2503509521484375
1758447395968668200,12.322668212890624,0.037200927734375,0.8716583251953125,0.31988525390625
1758447395978641200,12.33264111328125,0.06146240234375,0.8679351806640625,0.3427581787109375
1758447395988613000,12.342613037109375,0.0585784912109375,0.885162353515625,0.3360748291015625
1758447395998585300,12.35258544921875,0.02459716796875,0.90545654296875,0.301025390625
1758447396008558300,12.362558349609374,-0.020416259765625,0.9283447265625,0.2251739501953125
1758447396018530000,12.372530029296875,-0.0632171630859375,0.9456634521484375,0.1436767578125
1758447396028502300,12.382502197265625,-0.083282470703125,0.9638214111328125,0.0894775390625
1758447396038475300,12.392475341796874,-0.08636474609375,1.0075836181640625,0.055206298828125
1758447396048447200,12.402447265625,-0.08917236328125,1.0615997314453125,0.044403076171875
1758447396058419200,12.412419189453125,-0.0736083984375,1.1035308837890625,0.0305633544921875
1758447396068392200,12.42239208984375,-0.0496673583984375,1.1090545654296875,-0.001708984375
1758447396078364200,12.4323642578125,-0.0416412353515625,1.07208251953125,-0.0114593505859375
1758447396088336100,12.442336181640625,-0.03277587890625,1.037078857421875,-0.004730224609375
1758447396098308400,12.452308349609375,-0.0461578369140625,1.0287322998046875,0.0137939453125
1758447396108281000,12.462281005859374,-0.0800933837890625,1.0538787841796875,0.048858642578125
1758447396118253300,12.47225341796875,-0.1121978759765625,1.1079864501953125,0.08892822265625
1758447396128225300,12.482225341796875,-0.13116455078125,1.154937744140625,0.1133880615234375
1758447396138198000,12.492197998046874,-0.1448516845703125,1.192626953125,0.1210479736328125
1758447396148170200,12.502170166015626,-0.183380126953125,1.2462005615234375,0.12939453125
1758447396158142200,12.51214208984375,-0.245361328125,1.3155670166015625,0.1410980224609375
1758447396168115200,12.522115234375,-0.2802276611328125,1.37371826171875,0.1224822998046875
1758447396178087200,12.532087158203124,-0.300140380859375,1.4655303955078125,0.0684356689453125
1758447396188059400,12.542059326171875,-0.32818603515625,1.586090087890625,0.0316009521484375
1758447396198032100,12.5520322265625,-0.31768798828125,1.67681884765625,0.0436553955078125
1758447396208004400,12.56200439453125,-0.241729736328125,1.7010040283203125,0.0566558837890625
1758447396217976300,12.571976318359376,-0.1335296630859375,1.67645263671875,0.106597900390625
1758447396227949000,12.581948974609375,0.0051727294921875,1.6498260498046875,0.201202392578125
1758447396237921300,12.59192138671875,0.2090606689453125,1.6062774658203125,0.298828125
1758447396247893200,12.601893310546876,0.4222259521484375,1.5064849853515625,0.3317413330078125
1758447396257866200,12.6118662109375,0.5734405517578125,1.38848876953125,0.290924072265625
1758447396267838200,12.621838134765625,0.707489013671875,1.2873077392578125,0.22418212890625
1758447396277810400,12.631810546875,0.8382720947265625,1.210205078125,0.1269378662109375
1758447396287783200,12.641783203125,0.8912200927734375,1.1534271240234375,0.0367279052734375
1758447396297755100,12.651755126953125,0.8523406982421875,1.1193084716796875,0.011138916015625
1758447396307727400,12.661727294921874,0.6988983154296875,1.1017913818359375,0.0741729736328125
1758447396317699000,12.671698974609376,0.4349212646484375,1.1038818359375,0.204803466796875
1758447396327672300,12.68167236328125,0.195281982421875,1.11328125,0.3009185791015625
1758447396337644300,12.691644287109375,0.0451202392578125,1.135009765625,0.379608154296875
1758447396347616300,12.7016162109375,0.08270263671875,1.1642303466796875,0.42401123046875
1758447396357589200,12.71158935546875,0.175933837890625,1.21533203125,0.463531494140625
1758447396367561200,12.721561279296875,0.1858062744140625,1.2288665771484375,0.5166778564453125
1758447396377533200,12.731533203125,0.1284942626953125,1.1456298828125,0.4814453125
1758447396387506200,12.741506103515626,0.010833740234375,1.0562591552734375,0.4761810302734375
1758447396397478400,12.751478515625,-0.0547943115234375,1.0552978515625,0.556976318359375
1758447396407450000,12.7614501953125,-0.056549072265625,1.038299560546875,0.5763092041015625
1758447396417423400,12.77142333984375,-0.15411376953125,1.0430450439453125,0.5204925537109375
1758447396427395300,12.781395263671875,-0.11883544921875,1.0772552490234375,0.188629150390625
1758447396437367300,12.7913671875,0.1145782470703125,1.1945037841796875,-0.3254852294921875
1758447396447340300,12.80134033203125,0.2211761474609375,1.36029052734375,-0.377105712890625
1758447396457312300,12.811312255859375,0.3634490966796875,1.3807220458984375,-0.1898040771484375
1758447396467284200,12.8212841796875,0.553955078125,1.3097076416015625,0.0414276123046875
1758447396477257200,12.83125732421875,0.667510986328125,1.2756195068359375,0.138427734375
1758447396487229400,12.8412294921875,0.562103271484375,1.2465972900390625,0.1899566650390625
1758447396497201200,12.851201171875,0.298187255859375,1.2132415771484375,0.2054290771484375
