time,seconds_elapsed,z,y,x
1758447383662861800,0.01686181640625,-0.09602738916873932,0.1730189323425293,-0.0722300335764885
1758447383672833800,0.026833740234375,-0.09522764384746552,0.09507033228874207,0.07698102295398712
1758447383682805800,0.0368056640625,-0.10097645223140717,0.005277280230075121,0.18528024852275848
1758447383692778000,0.046778076171875,-0.10680051892995834,-0.08980049937963486,0.25097376108169556
1758447383702751000,0.0567509765625,-0.10538733005523682,-0.16829338669776917,0.2741713225841522
1758447383712722700,0.06672265625,-0.10003970563411713,-0.22395318746566772,0.2622917592525482
1758447383722695000,0.07669482421875,-0.09505076706409454,-0.24341563880443573,0.21950235962867737
1758447383732668000,0.08666796875,-0.09119637310504913,-0.22820311784744263,0.15919028222560883
1758447383742639900,0.096639892578125,-0.08282168209552765,-0.19407550990581512,0.09046904742717743
1758447383752612400,0.1066123046875,-0.07017646729946136,-0.15076851844787598,0.017212679609656334
1758447383762584300,0.116584228515625,-0.05333474650979042,-0.08735175430774689,-0.047417785972356796
1758447383772557300,0.126557373046875,-0.03887777402997017,-0.014247987419366837,-0.1004200205206871
1758447383782529300,0.136529296875,-0.01867370679974556,0.039620570838451385,-0.13613088428974152
1758447383792501500,0.14650146484375,0.0032403816003352404,0.06808523833751678,-0.15210852026939392
1758447383802474200,0.15647412109375,0.021311147138476372,0.07991735637187958,-0.15162229537963867
1758447383812446500,0.166446533203125,0.03440457582473755,0.06779385358095169,-0.13087467849254608
1758447383822418200,0.176418212890625,0.04172545671463013,0.03590121865272522,-0.10002505034208298
1758447383832391200,0.18639111328125,0.041349686682224274,0.0015182143542915583,-0.06496027857065201
1758447383842363400,0.19636328125,0.032636240124702454,-0.02426283061504364,-0.030495062470436096
1758447383852335000,0.206335205078125,0.021761221811175346,-0.050767943263053894,-0.006997990887612104
1758447383862307300,0.216307373046875,0.01614723913371563,-0.05352449417114258,0.00494404835626483
1758447383872280300,0.2262802734375,0.02301153726875782,-0.025040656328201294,0.010466113686561584
1758447383882252300,0.236252197265625,0.03719869256019592,0.0082347821444273,0.001567811705172062
1758447383892224300,0.246224365234375,0.053690049797296524,0.019056804478168488,-0.011639069765806198
1758447383902197200,0.256197265625,0.06492189317941666,0.015062134712934494,-0.02812815085053444
1758447383912169200,0.266169189453125,0.06885937601327896,0.0032131981570273638,-0.041164323687553406
1758447383922141400,0.276141357421875,0.06319350004196167,0.002419854514300823,-0.05043371021747589
1758447383932113400,0.286113525390625,0.051321130245923996,0.008694527670741081,-0.056539807468652725
1758447383942086100,0.296086181640625,0.04303143173456192,0.022275473922491074,-0.06085754558444023
1758447383952058400,0.306058349609375,0.046250659972429276,0.0393010638654232,-0.058651916682720184
1758447383962030300,0.3160302734375,0.060051921755075455,0.027591772377490997,-0.055213071405887604
1758447383972003300,0.32600341796875,0.07953427731990814,-0.007803768385201693,-0.05138903856277466
1758447383981975300,0.335975341796875,0.09489528089761734,-0.05157899484038353,-0.03904271125793457
1758447383991947500,0.345947509765625,0.09785272181034088,-0.09082706272602081,-0.017024226486682892
1758447384001919200,0.355919189453125,0.08542481064796448,-0.11385302990674973,0.01586766727268696
1758447384011892200,0.365892333984375,0.06601249426603317,-0.12252242118120193,0.04830629751086235
1758447384021864400,0.375864501953125,0.046112898737192154,-0.11123821884393692,0.07607531547546387
1758447384031836200,0.385836181640625,0.03616652637720108,-0.08097538352012634,0.08672875910997391
1758447384041809400,0.395809326171875,0.03493797406554222,-0.038425445556640625,0.06930731981992722
1758447384051781400,0.405781494140625,0.03806931525468826,0.00245567224919796,0.033966902643442154
1758447384061753300,0.41575341796875,0.04594002291560173,0.030873186886310577,-0.015383079648017883
1758447384071725300,0.425725341796875,0.04595440253615379,0.05028816685080528,-0.060227785259485245
1758447384081698300,0.4356982421875,0.02941366285085678,0.05815195292234421,-0.09593468904495239
1758447384091670300,0.445670166015625,0.004076348152011633,0.04799945279955864,-0.11169234663248062
1758447384101642500,0.455642578125,-0.02854471281170845,0.03923202306032181,-0.10592689365148544
1758447384111615500,0.465615478515625,-0.059980664402246475,0.03581492230296135,-0.0820455253124237
1758447384121587200,0.475587158203125,-0.08578848093748093,0.027757350355386734,-0.06183832511305809
1758447384131559400,0.485559326171875,-0.10355709493160248,0.023198019713163376,-0.046761371195316315
1758447384141531100,0.49553125,-0.11078795790672302,0.03372735530138016,-0.033809930086135864
1758447384151504400,0.50550439453125,-0.1072976216673851,0.034926045686006546,-0.03670957684516907
1758447384161476400,0.515476318359375,-0.10594697296619415,0.018521202728152275,-0.05104678496718407
1758447384171448300,0.5254482421875,-0.10635310411453247,-0.010281949304044247,-0.07352359592914581
1758447384181421300,0.53542138671875,-0.1002986803650856,-0.05228239670395851,-0.09127169847488403
1758447384191393300,0.545393310546875,-0.08643798530101776,-0.1021767184138298,-0.09364217519760132
1758447384201365200,0.555365234375,-0.07035801559686661,-0.137806236743927,-0.07347356528043747
1758447384211337200,0.565337158203125,-0.0607575885951519,-0.15375857055187225,-0.03727908059954643
1758447384221310500,0.575310546875,-0.05030844360589981,-0.12471380084753036,0.004508462734520435
1758447384231282200,0.5852822265625,-0.04631742835044861,-0.07531403005123138,0.03677345812320709
1758447384241254400,0.59525439453125,-0.03391124680638313,-0.03238678723573685,0.037217460572719574
1758447384251227400,0.605227294921875,-0.02216004952788353,-0.025321422144770622,-0.000190097838640213
1758447384261199400,0.615199462890625,-0.00987427867949009,-0.01670757308602333,-0.06170622259378433
1758447384271171300,0.62517138671875,0.0012388259638100863,0.009537345729768276,-0.12063585221767426
1758447384281143600,0.6351435546875,0.0027155866846442223,0.027606310322880745,-0.1703721135854721
1758447384291116300,0.6451162109375,-0.003428592113777995,0.03586823493242264,-0.20133748650550842
1758447384301088300,0.655088134765625,-0.015799280256032944,0.04687247797846794,-0.21586649119853973
1758447384311060500,0.665060546875,-0.02017005905508995,0.07223642617464066,-0.20286627113819122
1758447384321033200,0.675033203125,-0.01776690036058426,0.08297660201787949,-0.1742209792137146
1758447384331005400,0.68500537109375,-0.012795043177902699,0.07736265659332275,-0.13151559233665466
1758447384340977400,0.694977294921875,-0.012846899218857288,0.06729468703269958,-0.07792378216981888
1758447384350950100,0.7049501953125,-0.01180160790681839,0.04651243984699249,-0.02154465951025486
1758447384360922400,0.71492236328125,-0.0104527547955513,0.013481593690812588,0.03304390236735344
1758447384370894300,0.724894287109375,-0.005775977857410908,-0.02336590364575386,0.07554715871810913
1758447384380866300,0.7348662109375,-0.005495471879839897,-0.06452121585607529,0.10320457071065903
1758447384390839300,0.74483935546875,-0.01755080185830593,-0.11659853160381317,0.10179682821035385
1758447384400811500,0.7548115234375,-0.03382279351353645,-0.15130633115768433,0.07641904056072235
1758447384410783200,0.764783203125,-0.04298966005444527,-0.1269618421792984,0.03385400399565697
1758447384420756200,0.774756103515625,-0.03919431194663048,-0.06993461400270462,-0.021990621462464333
1758447384430728400,0.784728515625,-0.028477486222982407,-0.0030714303720742464,-0.08092105388641357
1758447384440700400,0.794700439453125,-0.012552088126540184,0.03959299251437187,-0.13356229662895203
1758447384450672400,0.80467236328125,0.008025625720620155,0.05800848454236984,-0.16895170509815216
1758447384460645400,0.814645263671875,0.030229046940803528,0.0625673457980156,-0.17601510882377625
1758447384470617300,0.824617431640625,0.05083765089511871,0.04567784070968628,-0.15132415294647217
1758447384480589300,0.83458935546875,0.0639338567852974,0.026209605857729912,-0.10084575414657593
1758447384490562600,0.8445625,0.07221655547618866,0.008147780783474445,-0.04368605837225914
1758447384500534300,0.8545341796875,0.07525233179330826,-0.008559898473322392,0.01540161482989788
1758447384510506500,0.864506591796875,0.07598923146724701,-0.03035654127597809,0.05623426288366318
1758447384520478200,0.874478271484375,0.07611207664012909,-0.03271254152059555,0.07256551086902618
1758447384530451200,0.884451171875,0.074073426425457,-0.012989437207579613,0.06868129223585129
1758447384540423400,0.89442333984375,0.07685034722089767,0.012306282296776772,0.04562085121870041
1758447384550395100,0.90439501953125,0.07734116911888123,0.029828017577528954,0.008791731670498848
1758447384560368400,0.914368408203125,0.07292503118515015,0.03732949122786522,-0.03455624356865883
1758447384570340400,0.92434033203125,0.06180686876177788,0.0402190200984478,-0.07794766128063202
1758447384580312300,0.934312255859375,0.04889141395688057,0.049032870680093765,-0.11636058986186981
1758447384590284300,0.9442841796875,0.04353553056716919,0.0686262771487236,-0.13999907672405243
1758447384600257300,0.95425732421875,0.036217547953128815,0.07688160240650177,-0.14305922389030457
1758447384610229200,0.964229248046875,0.035962946712970734,0.06453518569469452,-0.12115685641765594
1758447384620201500,0.974201416015625,0.0377962663769722,0.049218565225601196,-0.07955826818943024
1758447384630174500,0.984174560546875,0.0394173339009285,0.010673566721379757,-0.04033683240413666
1758447384640146200,0.994146240234375,0.039734020829200745,-0.02512955479323864,-0.007469879928976297
1758447384650118400,1.004118408203125,0.045383650809526443,-0.03740006685256958,0.02436341717839241
1758447384660091400,1.01409130859375,0.048084285110235214,-0.0437677763402462,0.05513843521475792
1758447384670063400,1.0240634765625,0.03939732164144516,-0.04022310674190521,0.07445434480905533
1758447384680035300,1.034035400390625,0.02126290649175644,-0.015392578206956387,0.08016900718212128
1758447384690007600,1.044007568359375,0.006788625381886959,0.009509042836725712,0.07337208837270737
1758447384699980300,1.053980224609375,-0.002182536758482456,0.022714145481586456,0.053004659712314606
1758447384709952300,1.0639521484375,-0.00571362255141139,0.0370669849216938,0.0259445458650589
1758447384719924500,1.073924560546875,-0.007284088525921106,0.05198494717478752,-0.004085525404661894
1758447384729897200,1.083897216796875,-0.014601923525333405,0.060065243393182755,-0.033056456595659256
1758447384739869400,1.093869384765625,-0.02971148118376732,0.04718321934342384,-0.052164990454912186
1758447384749841000,1.1038408203125,-0.04062644764780998,0.022295448929071426,-0.05269202962517738
1758447384759812900,1.113812744140625,-0.04929305985569954,-0.013444902375340462,-0.03332355245947838
1758447384769785900,1.123785888671875,-0.05474694445729256,-0.04567394405603409,0.0001803431659936905
1758447384779758000,1.133758056640625,-0.055590175092220306,-0.0638839602470398,0.034714385867118835
1758447384789729800,1.143729736328125,-0.06294822692871094,-0.0745009183883667,0.05899575725197792
1758447384799702800,1.153702880859375,-0.059445563703775406,-0.052212562412023544,0.0691428855061531
1758447384809675000,1.163675048828125,-0.03637965768575668,0.0034768010955303907,0.06607465445995331
1758447384819646700,1.173646728515625,-0.0040174550376832485,0.05018173158168793,0.044716641306877136
1758447384829619000,1.183618896484375,0.025181176140904427,0.08037319034337997,0.0172573234885931
1758447384839592000,1.193592041015625,0.0422050915658474,0.08889304846525192,-0.010051771998405457
1758447384849564000,1.20356396484375,0.04396943747997284,0.06959684938192368,-0.03692972660064697
1758447384859536000,1.213535888671875,0.02963782474398613,0.0565941296517849,-0.05435233935713768
1758447384869508900,1.2235087890625,0.012571223080158234,0.049604665488004684,-0.05860114470124245
1758447384879480800,1.233480712890625,-0.0002458863891661167,0.04073523357510567,-0.0505606085062027
1758447384889453000,1.243453125,-0.007036947179585695,0.030266348272562027,-0.03340611979365349
1758447384899424800,1.2534248046875,-0.003083864925429225,0.016008524224162102,-0.013226911425590515
1758447384909397800,1.263397705078125,0.006890738382935524,-0.0008700580801814795,0.005279927980154753
1758447384919370000,1.273369873046875,0.022705957293510437,-0.010334473103284836,0.019980695098638535
1758447384929341700,1.283341796875,0.043522559106349945,-0.004532775841653347,0.02699039876461029
1758447384939315000,1.29331494140625,0.05875507742166519,0.009173930622637272,0.02842065319418907
1758447384949287000,1.303286865234375,0.07030494511127472,0.021018072962760925,0.024837903678417206
1758447384959259000,1.3132587890625,0.07572272419929504,0.0307365283370018,0.02291012369096279
1758447384969232000,1.32323193359375,0.07266435027122498,0.0235087089240551,0.02278309129178524
1758447384979203800,1.333203857421875,0.06071409583091736,0.020905420184135437,0.03064412623643875
1758447384989175800,1.34317578125,0.04172070324420929,0.02225431054830551,0.03424365445971489
1758447384999147800,1.353147705078125,0.024694539606571198,0.022773435339331627,0.03142644464969635
1758447385009121000,1.36312109375,0.01906568370759487,0.03592811897397041,0.02228541299700737
1758447385019092700,1.3730927734375,0.020434167236089706,0.06152823939919472,0.004676775075495243
1758447385029065000,1.38306494140625,0.027120832353830338,0.09360095858573914,-0.016631176695227623
1758447385039038000,1.393037841796875,0.027679260820150375,0.09179648011922836,-0.045805417001247406
1758447385049010000,1.403010009765625,0.014865726232528687,0.05959194153547287,-0.07257524132728577
1758447385058982000,1.41298193359375,-0.000536399194970727,0.030771741643548012,-0.08444628119468689
1758447385068954000,1.4229541015625,-0.01749247871339321,-0.003095942083746195,-0.07925551384687424
1758447385078926800,1.4329267578125,-0.03368130326271057,-0.04116608574986458,-0.05105183273553848
1758447385088898800,1.44289892578125,-0.044680155813694,-0.07469874620437622,-0.01114196889102459
1758447385098870800,1.452870849609375,-0.05635564401745796,-0.07746009528636932,0.02998543530702591
1758447385108843800,1.46284375,-0.06096770614385605,-0.07276414334774017,0.0625673457980156
1758447385118816000,1.47281591796875,-0.055844660848379135,-0.07255066186189651,0.0720575600862503
1758447385128787700,1.48278759765625,-0.0513489805161953,-0.0711815282702446,0.0632166638970375
1758447385138760700,1.4927607421875,-0.04092742130160332,-0.07929473370313644,0.039359237998723984
1758447385148733000,1.50273291015625,-0.02927502617239952,-0.07970991730690002,0.012234143912792206
1758447385158704600,1.51270458984375,-0.0265063289552927,-0.0883600190281868,-0.015018824487924576
1758447385168676900,1.5226767578125,-0.03432244062423706,-0.0981370136141777,-0.04247548058629036
1758447385178649900,1.53264990234375,-0.04114149883389473,-0.09137459844350815,-0.06798865646123886
1758447385188621800,1.542621826171875,-0.04465314373373985,-0.05961720645427704,-0.09245830774307251
1758447385198593800,1.55259375,-0.042714934796094894,0.000331144779920578,-0.10820090770721436
1758447385208566800,1.56256689453125,-0.037127625197172165,0.05425269901752472,-0.11512166261672974
1758447385218538800,1.572538818359375,-0.0317385271191597,0.0936305895447731,-0.1109737753868103
1758447385228511000,1.582510986328125,-0.027143241837620735,0.119666188955307,-0.09994456171989441
1758447385238483000,1.59248291015625,-0.02389848604798317,0.1363522857427597,-0.07838559150695801
1758447385248455700,1.60245556640625,-0.01691913977265358,0.13237619400024414,-0.04877470061182976
1758447385258428000,1.612427978515625,-0.0027107559144496918,0.11491438001394272,-0.013368022628128529
1758447385268399900,1.62239990234375,0.005537853110581636,0.09401708841323853,0.02794506400823593
1758447385278372900,1.632372802734375,0.0075426045805215836,0.061507221311330795,0.05618525668978691
1758447385288344800,1.6423447265625,-0.0015467642806470394,0.016755199059844017,0.05989637225866318
1758447385298317000,1.652317138671875,-0.01685548946261406,-0.019974196329712868,0.04141831025481224
1758447385308289800,1.662289794921875,-0.026043394580483437,-0.044035326689481735,0.013508647680282593
1758447385318261800,1.67226171875,-0.02302919141948223,-0.05484249070286751,-0.014121254906058311
1758447385328234000,1.68223388671875,-0.010176243260502815,-0.0618537962436676,-0.030397163704037666
1758447385338205700,1.692205810546875,0.0026643401943147182,-0.05591070279479027,-0.0404871441423893
1758447385348179000,1.702178955078125,0.015160690993070602,-0.020992400124669075,-0.04172578081488609
1758447385358151000,1.71215087890625,0.022301767021417618,0.011470268480479717,-0.04219936579465866
1758447385368123000,1.722122802734375,0.024820052087306976,0.03431885689496994,-0.04243159294128418
1758447385378095900,1.732095947265625,0.03093341365456581,0.03715981915593147,-0.04990096017718315
1758447385388067800,1.74206787109375,0.0400286428630352,0.02913437969982624,-0.0457480251789093
1758447385398039800,1.752039794921875,0.04641619697213173,0.014832202345132828,-0.03225497901439667
1758447385408012000,1.762011962890625,0.04274476319551468,-0.006015821360051632,-0.005109110381454229
1758447385417985000,1.771985107421875,0.030695289373397827,-0.027039092034101486,0.02512441761791706
1758447385427956700,1.781956787109375,0.02078380435705185,-0.04401328042149544,0.04539426788687706
1758447385437929000,1.791928955078125,0.02615068107843399,-0.06248458847403526,0.059596069157123566
1758447385447902000,1.80190185546875,0.03120456263422966,-0.04700443148612976,0.06413596123456955
1758447385457874000,1.8118740234375,0.034620143473148346,-0.03962577134370804,0.04989359527826309
1758447385467846000,1.821845947265625,0.03766067326068878,-0.0401592031121254,0.025167478248476982
1758447385477819000,1.83181884765625,0.034689612686634064,-0.00855192355811596,-0.002015515463426709
1758447385487790800,1.841790771484375,0.033068813383579254,0.029489733278751373,-0.03151161968708038
1758447385497762800,1.8517626953125,0.039664700627326965,0.07149462401866913,-0.058573491871356964
1758447385507734800,1.86173486328125,0.04602885618805885,0.093219093978405,-0.07629336416721344
1758447385517707800,1.871707763671875,0.052200544625520706,0.0871935486793518,-0.08702567219734192
1758447385527680000,1.881679931640625,0.05475132167339325,0.08170876652002335,-0.0791536346077919
1758447385537651700,1.891651611328125,0.05179053172469139,0.07428072392940521,-0.058080222457647324
1758447385547624700,1.901624755859375,0.046039968729019165,0.059005897492170334,-0.03347128629684448
1758447385557597000,1.911596923828125,0.03687477484345436,0.040580641478300095,-0.0023717484436929226
1758447385567569000,1.92156884765625,0.028232283890247345,0.014065409079194069,0.024547748267650604
1758447385577540900,1.931540771484375,0.020113714039325714,-0.014405248686671257,0.04648258537054062
1758447385587513900,1.941513916015625,0.009197683073580265,-0.04583188146352768,0.060976579785346985
1758447385597485800,1.95148583984375,0.0019118830095976591,-0.06084640696644783,0.06262423098087311
1758447385607457800,1.961457763671875,0.00035712961107492447,-0.057989370077848434,0.06199199706315994
1758447385617431000,1.97143115234375,0.004698348231613636,-0.04127564653754234,0.04695391282439232
1758447385627402800,1.98140283203125,0.008339421823620796,-0.00912490114569664,0.0256720632314682
1758447385637375000,1.991375,0.01524408534169197,0.0351189561188221,0.010088500566780567
1758447385647348000,2.001347900390625,0.021485203877091408,0.07139573991298676,-0.0022334130480885506
1758447385657319700,2.011319580078125,0.023377835750579834,0.07990790903568268,-0.014596546068787575
1758447385667292000,2.0212919921875,0.020387105643749237,0.07392405718564987,-0.026227101683616638
1758447385677264000,2.031263916015625,0.01558025274425745,0.06757742911577225,-0.027007758617401123
1758447385687236900,2.04123681640625,0.014704604633152485,0.03188947215676308,-0.02260741777718067
1758447385697208800,2.051208740234375,0.00520678423345089,0.004365290515124798,-0.008409073576331139
1758447385707181000,2.06118115234375,-0.0020010615698993206,-0.004882004112005234,0.01588507927954197
1758447385717153800,2.07115380859375,-0.01249163318425417,-0.021590447053313255,0.04012909159064293
1758447385727125800,2.081125732421875,-0.022291800007224083,-0.056540973484516144,0.04869674891233444
1758447385737098000,2.091097900390625,-0.032132335007190704,-0.07893121242523193,0.04967499524354935
1758447385747070000,2.101070068359375,-0.03151927515864372,-0.08640190958976746,0.05078260228037834
1758447385757043000,2.11104296875,-0.02636856772005558,-0.0941392183303833,0.05339136719703674
1758447385767015000,2.121014892578125,-0.02053730934858322,-0.10538254678249359,0.05337671935558319
1758447385776987100,2.130987060546875,-0.00974500086158514,-0.07981245964765549,0.044586215168237686
1758447385786960000,2.1409599609375,0.010402876883745193,-0.025335369631648064,0.03382251784205437
1758447385796932000,2.15093212890625,0.029299527406692505,0.020016035065054893,0.023757949471473694
1758447385806904000,2.160904052734375,0.047465745359659195,0.043255310505628586,0.010910328477621078
1758447385816876800,2.170876708984375,0.05729033797979355,0.045384667813777924,-0.002223275601863861
1758447385826849000,2.18084912109375,0.05939876288175583,0.04784382879734039,-0.01066576223820448
1758447385836821000,2.190821044921875,0.05039548873901367,0.06340105831623077,-0.01736684888601303
1758447385846793000,2.20079296875,0.03466606140136719,0.06958544999361038,-0.021902745589613914
1758447385856766000,2.210765869140625,0.012496997602283955,0.05741080641746521,-0.02954021282494068
1758447385866738200,2.22073828125,-0.0063491277396678925,0.03731592744588852,-0.03421273082494736
1758447385876710000,2.2307099609375,-0.01539622899144888,0.006524837110191584,-0.029585741460323334
1758447385886683000,2.240682861328125,-0.01634431630373001,-0.026474125683307648,-0.01771709695458412
1758447385896655000,2.250655029296875,-0.017616240307688713,-0.043212082237005234,-0.0015128187369555235
1758447385906626800,2.260626708984375,-0.022323910146951675,-0.036309704184532166,0.017180973663926125
1758447385916599000,2.27059912109375,-0.0286716315895319,-0.004412609152495861,0.0319674089550972
1758447385926572000,2.280572021484375,-0.02645561285316944,0.023975089192390442,0.0394519567489624
1758447385936544000,2.2905439453125,-0.021503617987036705,0.04513579607009888,0.029899530112743378
1758447385946516000,2.300515869140625,-0.008412051014602184,0.06174673140048981,0.012424400076270103
1758447385956489000,2.310489013671875,0.0017533109057694674,0.0677349790930748,-0.011809057556092739
1758447385966461000,2.3204609375,0.004922738764435053,0.06330320984125137,-0.03697752580046654
1758447385976433200,2.33043310546875,-0.003751518903300166,0.05327765271067619,-0.051329515874385834
1758447385986406100,2.34040625,-0.018752306699752808,0.03970218822360039,-0.05109648406505585
1758447385996377900,2.3503779296875,-0.033673807978630066,0.018470751121640205,-0.0430351197719574
1758447386006350000,2.36035009765625,-0.04405853897333145,-0.005056412890553474,-0.026903022080659866
1758447386016321800,2.37032177734375,-0.04526651278138161,-0.01127544417977333,-0.006215420551598072
1758447386026295000,2.380294921875,-0.03891859948635101,-0.0010963096283376217,0.013901831582188606
1758447386036267000,2.39026708984375,-0.026657216250896454,0.0077535416930913925,0.022847171872854233
1758447386046239000,2.400239013671875,-0.013974443078041077,0.013971490785479546,0.026239505037665367
1758447386056212000,2.4102119140625,-0.0027670625131577253,0.026317350566387177,0.028340725228190422
1758447386066184000,2.420183837890625,0.003868203144520521,0.040560733526945114,0.029676834121346474
1758447386076156000,2.430156005859375,0.0072669293731451035,0.04372801259160042,0.03630169481039047
1758447386086127900,2.4401279296875,0.009322356432676315,0.042145028710365295,0.038609590381383896
1758447386096101000,2.45010107421875,0.006950089707970619,0.039084676653146744,0.03564894571900368
1758447386106072800,2.46007275390625,0.001082080416381359,0.029957491904497147,0.026373952627182007
1758447386116045000,2.470045166015625,-0.00004504597745835781,0.02285042777657509,0.0055933184921741486
1758447386126018000,2.48001806640625,0.0003365851007401943,0.021734029054641724,-0.014306087046861649
1758447386135990000,2.489989990234375,0.005323620513081551,0.02111007273197174,-0.030776124447584152
1758447386145962000,2.4999619140625,0.009556182660162449,0.02772456593811512,-0.036074213683605194
1758447386155935000,2.50993505859375,0.008648348972201347,0.04887768253684044,-0.02758530154824257
1758447386165907000,2.519906982421875,0.003145991824567318,0.07136169075965881,-0.01197811122983694
1758447386175879000,2.52987890625,-0.00675617391243577,0.06922745704650879,0.004368930589407682
1758447386185851100,2.53985107421875,-0.018559303134679794,0.046353038400411606,0.014003181830048561
1758447386195823900,2.549823974609375,-0.025289759039878845,0.010620569810271263,0.017633261159062386
1758447386205796000,2.559796142578125,-0.026480190455913544,-0.03499644994735718,0.01181931421160698
1758447386215768000,2.56976806640625,-0.029411951079964638,-0.07392705231904984,0.005680786445736885
1758447386225740800,2.57974072265625,-0.03198802471160889,-0.07514305412769318,0.0009427564218640327
1758447386235713000,2.589713134765625,-0.029878612607717514,-0.04804867506027222,0.004996411968022585
1758447386245685000,2.59968505859375,-0.02316851168870926,-0.011589467525482178,0.012602666392922401
1758447386255658000,2.609657958984375,-0.021681707352399826,0.021266546100378036,0.01715707965195179
1758447386265630000,2.6196298828125,-0.013510329648852348,0.04125543311238289,0.020558202639222145
1758447386275602200,2.629602294921875,-0.004942675121128559,0.05904535949230194,0.020402681082487106
1758447386285574000,2.639573974609375,0.008525462821125984,0.05818568915128708,0.017816752195358276
1758447386295547100,2.649547119140625,0.015047924593091011,0.03578106313943863,0.018330268561840057
1758447386305519000,2.65951904296875,0.01709083653986454,-0.0048790122382342815,0.01900964230298996
1758447386315491000,2.669490966796875,0.00988314300775528,-0.06829287856817245,0.015888364985585213
1758447386325464000,2.679464111328125,-0.005044141784310341,-0.12624219059944153,0.004568599164485931
1758447386335436000,2.68943603515625,-0.014456590637564659,-0.13251177966594696,-0.002405836945399642
1758447386345408000,2.699407958984375,-0.02012539468705654,-0.10070671141147614,-0.0050948308780789375
1758447386355380000,2.7093798828125,-0.02399066835641861,-0.0577816367149353,-0.014807489700615406
1758447386365353200,2.719353271484375,-0.026731060817837715,-0.0032214545644819736,-0.029025040566921234
1758447386375325000,2.729324951171875,-0.01740638166666031,0.04074059799313545,-0.042893555015325546
1758447386385297200,2.739297119140625,0.007632124703377485,0.07636277377605438,-0.04763238504528999
1758447386395270100,2.749270263671875,0.03193267062306404,0.09606218338012695,-0.04535883665084839
1758447386405241900,2.759241943359375,0.038701362907886505,0.08647666871547699,-0.04240858554840088
1758447386415214000,2.769214111328125,0.024474069476127625,0.043707408010959625,-0.046238139271736145
1758447386425187000,2.77918701171875,0.0006278590299189091,-0.021781321614980698,-0.053035058081150055
1758447386435159000,2.789158935546875,-0.020590610802173615,-0.07255581021308899,-0.05015910044312477
1758447386445131000,2.799131103515625,-0.032926373183727264,-0.0877201184630394,-0.03531091287732124
1758447386455103000,2.80910302734375,-0.03726804628968239,-0.08028048276901245,-0.0053171198815107346
1758447386465076000,2.819075927734375,-0.038641706109046936,-0.060994140803813934,0.03178790584206581
1758447386475048200,2.829048095703125,-0.03314048796892166,-0.03275540843605995,0.0647517591714859
1758447386485020000,2.83902001953125,-0.023850053548812866,0.005610088352113962,0.08607275784015656
1758447386494993000,2.848992919921875,-0.006625070236623287,0.03218165785074234,0.08522431552410126
1758447386504965000,2.858965087890625,0.013974214904010296,0.03971680626273155,0.06643784791231155
1758447386514936800,2.868936767578125,0.03358352556824684,0.03782903403043747,0.040707480162382126
1758447386524909000,2.878908935546875,0.04068617895245552,0.028822757303714752,0.015202385373413563
1758447386534882000,2.888882080078125,0.03642907738685608,0.019803769886493683,0.0007053525187075138
1758447386544854000,2.89885400390625,0.01861625723540783,0.008160163648426533,-0.0026097502559423447
1758447386554826000,2.908825927734375,-0.0004522809758782387,0.002026177244260907,0.006598544307053089
1758447386564799000,2.918799072265625,-0.015460526570677757,-0.00597023032605648,0.0175944697111845
1758447386574771000,2.92877099609375,-0.022157689556479454,-0.014208766631782055,0.02525230497121811
1758447386584743000,2.938742919921875,-0.008362782187759876,-0.009822540916502476,0.03308279812335968
1758447386594716200,2.948716064453125,0.016508135944604874,0.003064664313569665,0.03960919380187988
1758447386604688000,2.95868798828125,0.03959587961435318,0.012207563035190105,0.038711175322532654
1758447386614660000,2.96866015625,0.0507207028567791,0.015781790018081665,0.027660388499498367
1758447386624631800,2.9786318359375,0.0476817712187767,0.011098622344434261,0.013570933602750301
1758447386634605000,2.98860498046875,0.03519333153963089,0.012938246130943298,-0.0014955757651478052
1758447386644577000,2.998576904296875,0.02080720290541649,0.011510258540511131,-0.013576474040746689
1758447386654549000,3.008549072265625,0.009508930146694183,-0.001591592445038259,-0.02641185000538826
1758447386664522000,3.01852197265625,0.00022488483227789402,-0.005188724026083946,-0.035947296768426895
1758447386674494000,3.028493896484375,0.0024480153806507587,0.0034592829179018736,-0.04102427512407303
1758447386684466000,3.0384658203125,0.011724870651960373,0.012481274083256721,-0.04006367176771164
1758447386694438000,3.04843798828125,0.018054481595754623,0.034215960651636124,-0.029633186757564545
1758447386704411100,3.0584111328125,0.018831592053174973,0.04749394953250885,-0.0222032330930233
1758447386714382800,3.0683828125,0.016082219779491425,0.047914572060108185,-0.015717413276433945
1758447386724355000,3.07835498046875,0.011454179883003235,0.041360531002283096,-0.006943629588931799
1758447386734328000,3.088328125,0.006848964840173721,0.02478012815117836,-0.00357627822086215
1758447386744299800,3.0982998046875,-0.00019509601406753063,-0.0039391350001096725,0.00047172652557492256
1758447386754272300,3.108272216796875,-0.007191106677055359,-0.03287329152226448,0.010557450354099274
1758447386764245200,3.118245361328125,-0.009237479418516159,-0.05265631526708603,0.022704660892486572
1758447386774217500,3.128217529296875,-0.014937899075448513,-0.05806613713502884,0.04078403115272522
1758447386784189200,3.138189208984375,-0.017008241266012192,-0.06518157571554184,0.05293523520231247
1758447386794161400,3.148161376953125,-0.020578360185027122,-0.05336537957191467,0.051662564277648926
1758447386804134400,3.158134521484375,-0.023977618664503098,-0.026897555217146873,0.04384831711649895
1758447386814106000,3.168106201171875,-0.021908456459641457,-0.009240000508725643,0.024689756333827972
1758447386824078300,3.178078369140625,-0.018779508769512177,0.00045150890946388245,0.0032206838950514793
1758447386834051300,3.18805126953125,-0.013822301290929317,0.011918514966964722,-0.016526151448488235
1758447386844023300,3.198023193359375,-0.008222471922636032,0.021484587341547012,-0.024474887177348137
1758447386853995300,3.207995361328125,-0.000801383750513196,0.023710371926426888,-0.02199462428689003
1758447386863967500,3.217967529296875,0.004977941978722811,0.017487894743680954,-0.014099683612585068
1758447386873940200,3.227940185546875,0.012089685536921024,0.01611095666885376,0.005453352816402912
1758447386883912400,3.237912353515625,0.01751481182873249,0.01948731206357479,0.023477360606193542
1758447386893884400,3.247884521484375,0.019246436655521393,0.013619753532111645,0.03554078936576843
1758447386903857200,3.257857177734375,0.010571455582976341,0.0084154037758708,0.028433077037334442
1758447386913829400,3.267829345703125,0.001834993832744658,0.01797051914036274,0.0173395574092865
1758447386923801300,3.27780126953125,0.0042531443759799,0.025175433605909348,0.0007933364249765873
1758447386933774300,3.2877744140625,0.014265069738030434,0.03448067978024483,-0.007905787788331509
1758447386943746300,3.297746337890625,0.028213907033205032,0.04594505578279495,-0.013036366552114487
1758447386953718500,3.307718505859375,0.03368476405739784,0.04858603700995445,-0.013367333449423313
1758447386963690200,3.317690185546875,0.028720632195472717,0.029698364436626434,-0.021819408982992172
1758447386973663200,3.327663330078125,0.015963634476065636,0.0015429595950990915,-0.03515792265534401
1758447386983635500,3.337635498046875,-0.00021560234017670155,-0.026099320501089096,-0.039284225553274155
1758447386993607200,3.347607177734375,-0.00925680622458458,-0.05719269812107086,-0.03000001236796379
1758447387003580400,3.357580322265625,-0.009729250334203243,-0.08750506490468979,-0.005344200413674116
1758447387013552400,3.367552490234375,-0.007955014705657959,-0.09019653499126434,0.02725646272301674
1758447387023524400,3.3775244140625,-0.0014110954944044352,-0.05720636248588562,0.06334149837493896
1758447387033496300,3.387496337890625,0.007836312986910343,-0.014764592982828617,0.09015107899904251
1758447387043469300,3.39746923828125,0.01880826987326145,0.01965676248073578,0.09410161525011063
1758447387053441300,3.407441162109375,0.03472544997930527,0.03058825246989727,0.07211989164352417
1758447387063413500,3.41741357421875,0.048668164759874344,0.018699366599321365,0.03178178519010544
1758447387073386500,3.427386474609375,0.050734397023916245,0.005745460279285908,-0.013694151304662228
1758447387083358200,3.437358154296875,0.046704500913619995,0.0017856063786894083,-0.05684242397546768
1758447387093330400,3.447330322265625,0.036778900772333145,0.004046875052154064,-0.07651467621326447
1758447387103303400,3.457303466796875,0.019994327798485756,0.002059890190139413,-0.07284536957740784
1758447387113275400,3.467275390625,0.011789395473897457,-0.0076790014281868935,-0.05536063760519028
1758447387123247400,3.477247314453125,0.007969889789819717,-0.009997815825045109,-0.020981624722480774
1758447387133219300,3.48721923828125,0.01754920370876789,-0.007715651765465736,0.01371296588331461
1758447387143192300,3.4971923828125,0.030354749411344528,-0.011653401888906956,0.042647410184144974
1758447387153164300,3.507164306640625,0.04151099547743797,-0.021694041788578033,0.05865807831287384
1758447387163136300,3.51713623046875,0.04424792528152466,-0.039452530443668365,0.05944371223449707
1758447387173109200,3.527109130859375,0.04100944474339485,-0.05216335132718086,0.05031765252351761
1758447387183081500,3.53708154296875,0.03985017165541649,-0.0398198664188385,0.04212656989693642
1758447387193053200,3.54705322265625,0.035485781729221344,-0.024375688284635544,0.02791006490588188
1758447387203025400,3.557025390625,0.030437495559453964,-0.016022948548197746,0.010841066017746925
1758447387212998400,3.566998291015625,0.021182479336857796,-0.0014202705351635814,-0.010253805667161942
1758447387222970400,3.576970458984375,0.020210424438118935,0.02087198570370674,-0.028161698952317238
1758447387232942300,3.5869423828125,0.023898713290691376,0.03578631952404976,-0.04226478189229965
1758447387242915300,3.596915283203125,0.027391180396080017,0.029699129983782768,-0.04731893166899681
1758447387252887300,3.60688720703125,0.0274136271327734,0.007549475412815809,-0.04337189346551895
1758447387262859300,3.616859375,0.02062549628317356,-0.018929269164800644,-0.02886831946671009
1758447387272831500,3.62683154296875,0.006772379856556654,-0.027099013328552246,-0.0032342527993023396
1758447387282804200,3.63680419921875,-0.0031186004634946585,-0.023072047159075737,0.024776609614491463
1758447387292776400,3.6467763671875,-0.009108087047934532,-0.0211624875664711,0.04394512623548508
1758447387302748400,3.65674853515625,-0.01065884530544281,-0.024259477853775024,0.0504312589764595
1758447387312721200,3.66672119140625,-0.009177557192742825,-0.03738093748688698,0.03934890031814575
1758447387322693400,3.676693359375,-0.007431855425238609,-0.04687457159161568,0.015622267499566078
1758447387332665300,3.686665283203125,-0.006053745746612549,-0.03858000785112381,-0.007031613029539585
1758447387342637300,3.69663720703125,-0.004317098297178745,-0.01710188202559948,-0.023830566555261612
1758447387352610300,3.7066103515625,-0.0029955238569527864,0.010107660666108131,-0.029283322393894196
1758447387362582500,3.71658251953125,-0.002414688700810075,0.03520742058753967,-0.023121032863855362
1758447387372554200,3.72655419921875,0.0007573643233627081,0.04850491136312485,-0.013809418305754662
1758447387382527200,3.73652734375,-0.0013542561791837215,0.039043232798576355,-0.005454815924167633
1758447387392499500,3.74649951171875,-0.0032182401046156883,0.015297751873731613,-0.0017110721673816442
1758447387402471400,3.756471435546875,-0.003101061098277569,-0.01540583185851574,0.0017678150907158852
1758447387412444400,3.7664443359375,-0.0005818246863782406,-0.04743783921003342,0.0034543201327323914
1758447387422416400,3.77641650390625,0.005098165478557348,-0.05129995569586754,0.00970103032886982
1758447387432388400,3.786388427734375,0.01311739906668663,-0.02847064845263958,0.020179547369480133
1758447387442360300,3.7963603515625,0.01955665647983551,-0.003498984966427088,0.026025451719760895
1758447387452333300,3.806333251953125,0.01501977164298296,0.0224981140345335,0.02309008315205574
1758447387462305300,3.81630517578125,0.007662788964807987,0.03933168947696686,0.009690655395388603
1758447387472277500,3.826277587890625,0.0037966780364513397,0.03074033185839653,-0.0172251146286726
1758447387482250200,3.836250244140625,0.005503498017787933,0.021448830142617226,-0.0434575192630291
1758447387492222200,3.84622216796875,0.012249398976564407,0.0237828828394413,-0.05960576981306076
1758447387502194400,3.8561943359375,0.017605016008019447,0.024970918893814087,-0.06476537138223648
1758447387512166100,3.866166259765625,0.009165153838694096,0.013603012077510357,-0.061264775693416595
1758447387522139400,3.876139404296875,-0.006998103111982346,0.006115800701081753,-0.052600715309381485
1758447387532111400,3.886111328125,-0.018099451437592506,-0.011158067733049393,-0.03893458470702171
1758447387542083300,3.896083251953125,-0.021826812997460365,-0.04211358726024628,-0.02645794302225113
1758447387552056300,3.906056396484375,-0.017225097864866257,-0.05652347952127457,-0.012417897582054138
1758447387562028300,3.9160283203125,-0.010797825641930103,-0.04632836580276489,0.010005919262766838
1758447387572000300,3.926000244140625,-0.005020515061914921,-0.023443544283509254,0.03314618021249771
1758447387581972500,3.935972412109375,-0.00033734668977558613,0.0018666062969714403,0.051576584577560425
1758447387591945500,3.945945556640625,0.004391742404550314,0.013335812836885452,0.058019645512104034
1758447387601917200,3.955917236328125,0.007126010023057461,0.0034395060501992702,0.046476975083351135
1758447387611889400,3.965889404296875,0.011047780513763428,0.0002783446107059717,0.02269628830254078
1758447387621862400,3.9758623046875,0.012045932933688164,0.00946625042706728,-0.0002412521280348301
1758447387631834400,3.98583447265625,0.007136548403650522,0.007862446829676628,-0.023640936240553856
1758447387641806300,3.995806396484375,-0.004618911072611809,0.0008277071174234152,-0.040960006415843964
1758447387651779300,4.005779296875,-0.018758926540613174,-0.012568598613142967,-0.04462919011712074
1758447387661751300,4.015751220703125,-0.026575570926070213,-0.0323106087744236,-0.04062805697321892
1758447387671723300,4.02572314453125,-0.023264387622475624,-0.04965965449810028,-0.025825707241892815
1758447387681695200,4.0356953125,-0.014713509008288383,-0.04737226665019989,-0.0020450111478567123
1758447387691668200,4.045668212890625,-0.0033396424259990454,-0.021756701171398163,0.021149924024939537
1758447387701640400,4.055640380859375,0.01055992767214775,0.005704483948647976,0.04349970072507858
1758447387711612200,4.065612060546875,0.01872282102704048,0.021203188225626945,0.049795784056186676
1758447387721585200,4.075585205078125,0.019110577180981636,0.014745821245014668,0.03917163610458374
1758447387731557400,4.085557373046875,0.009825313463807106,-0.005321837961673737,0.008289444260299206
1758447387741529300,4.095529296875,0.002692835871130228,-0.006147151812911034,-0.029431834816932678
1758447387751501300,4.105501220703125,0.0005414967890828848,0.011723753064870834,-0.05998803675174713
1758447387761474600,4.115474609375,0.007214047014713287,0.04113437235355377,-0.07818328589200974
1758447387771446500,4.125446533203125,0.018073922023177147,0.0633072555065155,-0.07973924279212952
1758447387781418500,4.13541845703125,0.027863968163728714,0.0672260969877243,-0.07343340665102005
1758447387791391500,4.1453916015625,0.030077436938881874,0.06371501088142395,-0.05394752696156502
1758447387801363500,4.155363525390625,0.0273442342877388,0.03821897506713867,-0.03091544471681118
1758447387811335700,4.165335693359375,0.017158137634396553,-0.003028502454981208,-0.012165023013949394
1758447387821307600,4.1753076171875,-0.0002959535922855139,-0.04182250425219536,0.010778642259538174
1758447387831280400,4.1852802734375,-0.008512642234563828,-0.06412160396575928,0.03278956189751625
1758447387841252600,4.195252685546875,-0.011361958459019661,-0.06498846411705017,0.0493946373462677
1758447387851224600,4.205224609375,-0.012831643223762512,-0.056501470506191254,0.05342140048742294
1758447387861197600,4.215197509765625,-0.012030031532049179,-0.035990603268146515,0.04147818684577942
1758447387871169500,4.22516943359375,-0.010583820752799511,-0.007189268246293068,0.0247898418456316
1758447387881141800,4.235141845703125,-0.00859310757368803,0.01133408211171627,-0.008645880036056042
1758447387891113500,4.245113525390625,-0.0038711330853402615,0.02698402665555477,-0.04257984459400177
1758447387901086500,4.25508642578125,-0.0038887099362909794,0.0383346863090992,-0.07562887668609619
1758447387911058700,4.26505859375,-0.001608929829671979,0.04269297420978546,-0.08880746364593506
1758447387921030400,4.275030517578125,-0.001567384460940957,0.036464907228946686,-0.0848819687962532
1758447387931003600,4.285003662109375,-0.0032590243499726057,0.027007222175598145,-0.05726924538612366
1758447387940975600,4.2949755859375,-0.004630818031728268,0.004823890049010515,-0.018506404012441635
1758447387950947600,4.304947509765625,-0.009303943254053593,-0.014225000515580177,0.017593063414096832
1758447387960919600,4.31491943359375,-0.014926142990589142,-0.021444031968712807,0.04930625110864639
1758447387970892500,4.324892578125,-0.012571452185511589,-0.023214343935251236,0.06770474463701248
1758447387980864500,4.334864501953125,-0.010734403505921364,-0.023918483406305313,0.069477878510952
1758447387990836700,4.344836669921875,-0.009601114317774773,-0.009720081463456154,0.05281107872724533
1758447388000809700,4.354809814453125,-0.007153669837862253,0.008126559667289257,0.0282527394592762
1758447388010781400,4.364781494140625,-0.0030442981515079737,0.017573371529579163,0.00031173741444945335
1758447388020753700,4.374753662109375,0.0076807839795947075,0.02844652533531189,-0.018983930349349976
1758447388030725400,4.384725341796875,0.012266214936971664,0.04670622572302818,-0.028829636052250862
1758447388040698600,4.39469873046875,0.00835616234689951,0.06725091487169266,-0.028250131756067276
1758447388050670600,4.404670654296875,-0.00386006198823452,0.07025127857923508,-0.03138987347483635
1758447388060642600,4.414642578125,-0.025807704776525497,0.054842494428157806,-0.0395338200032711
1758447388070615600,4.424615478515625,-0.042713526636362076,0.023439748212695122,-0.055392611771821976
1758447388080587500,4.43458740234375,-0.05091313645243645,-0.015403522178530693,-0.06390141695737839
1758447388090560800,4.444560791015625,-0.04278520494699478,-0.054971400648355484,-0.05640556290745735
1758447388100532500,4.454532470703125,-0.03481090068817139,-0.06518755108118057,-0.026768308132886887
1758447388110504700,4.464504638671875,-0.02895982190966606,-0.04735469073057175,0.019418735057115555
1758447388120477700,4.474477783203125,-0.024713944643735886,-0.02714448980987072,0.06896977871656418
1758447388130449400,4.484449462890625,-0.021151548251509666,-0.010608439333736897,0.10088927298784256
1758447388140421600,4.494421630859375,-0.015677686780691147,-0.012848157435655594,0.10781881958246231
1758447388150394600,4.50439453125,-0.011796662583947182,-0.023947125300765038,0.08555641025304794
1758447388160366600,4.51436669921875,-0.010861893184483051,-0.027674484997987747,0.0409948006272316
1758447388170338600,4.524338623046875,-0.016431931406259537,-0.027445925399661064,-0.012023268267512321
1758447388180310500,4.534310546875,-0.02499266341328621,-0.022324666380882263,-0.061811331659555435
1758447388190283500,4.544283447265625,-0.036158230155706406,-0.015450537204742432,-0.08980277180671692
1758447388200255700,4.554255859375,-0.04288164898753166,-0.009968419559299946,-0.09040358662605286
1758447388210227500,4.5642275390625,-0.0503363311290741,0.0033332088496536016,-0.07447828352451324
1758447388220200400,4.574200439453125,-0.05163915082812309,0.020118847489356995,-0.04255843535065651
1758447388230172700,4.584172607421875,-0.04698938503861427,0.030097663402557373,-0.007637552917003632
1758447388240144400,4.594144287109375,-0.040748532861471176,0.01823514699935913,0.021036703139543533
1758447388250116600,4.60411669921875,-0.033720262348651886,-0.00993320718407631,0.03652916103601456
1758447388260089600,4.614089599609375,-0.027567293494939804,-0.048007089644670486,0.03792678937315941
1758447388270061600,4.6240615234375,-0.02590867690742016,-0.07438543438911438,0.03247503191232681
1758447388280033500,4.634033447265625,-0.02723253332078457,-0.06756241619586945,0.023514293134212494
1758447388290006500,4.644006591796875,-0.030405422672629356,-0.03759654983878136,0.011041090823709965
1758447388299978500,4.653978515625,-0.03215858340263367,-0.0048356736078858376,-0.005785559304058552
1758447388309950500,4.663950439453125,-0.031502339988946915,0.019779063761234283,-0.019366752356290817
1758447388319922700,4.673922607421875,-0.025734735652804375,0.03670984506607056,-0.031070547178387642
1758447388329895400,4.6838955078125,-0.023162120953202248,0.03382830321788788,-0.036388881504535675
1758447388339867600,4.69386767578125,-0.01909254491329193,0.013212508521974087,-0.03588474541902542
1758447388349839600,4.703839599609375,-0.014041326940059662,-0.009556708857417107,-0.02454499341547489
1758447388359812600,4.7138125,-0.012715606018900871,-0.02642889879643917,-0.0036170752719044685
1758447388369784600,4.72378466796875,-0.01645289547741413,-0.03819618746638298,0.018280809745192528
1758447388379756800,4.7337568359375,-0.027014726772904396,-0.03348851948976517,0.03740629926323891
1758447388389728500,4.743728515625,-0.03136065974831581,-0.02921138145029545,0.04680214449763298
1758447388399701500,4.753701416015625,-0.03003254346549511,-0.017682556062936783,0.04361274465918541
1758447388409673700,4.763673828125,-0.023339904844760895,-0.00726048368960619,0.031369224190711975
1758447388419645400,4.7736455078125,-0.012653439305722713,-0.00961391907185316,0.008330482989549637
1758447388429618700,4.78361865234375,-0.00584194902330637,-0.018638692796230316,-0.014622471295297146
1758447388439590700,4.793590576171875,-0.002886372385546565,-0.0287746861577034,-0.03350641578435898
1758447388449562600,4.803562744140625,-0.002128779422491789,-0.017385253682732582,-0.037949055433273315
1758447388459534600,4.81353466796875,-0.006725661922246218,0.003045186633244157,-0.029417086392641068
1758447388469507600,4.823507568359375,-0.014520050026476383,0.01932344399392605,-0.02200612798333168
1758447388479479600,4.8334794921875,-0.020560365170240402,0.023644423112273216,-0.013282410800457
1758447388489451500,4.843451416015625,-0.023754065856337547,0.013312752358615398,-0.006091470830142498
1758447388499424800,4.8534248046875,-0.016205335035920143,-0.01520597469061613,0.0013715052045881748
1758447388509396500,4.863396484375,-0.012165851891040802,-0.047101058065891266,0.011214815080165863
1758447388519368700,4.87336865234375,-0.011203385889530182,-0.06550509482622147,0.018645834177732468
1758447388529340400,4.88334033203125,-0.019858697429299355,-0.05431864783167839,0.021536340937018394
1758447388539313700,4.893313720703125,-0.03019149787724018,-0.020108215510845184,0.02035815827548504
1758447388549285600,4.90328564453125,-0.04162395000457764,0.0074768345803022385,0.0051457565277814865
1758447388559257600,4.913257568359375,-0.04117760434746742,0.014934218488633633,-0.01216292567551136
1758447388569230600,4.923230712890625,-0.02714700996875763,0.0032296597491949797,-0.03260398656129837
1758447388579202600,4.93320263671875,-0.011167509481310844,-0.006933495402336121,-0.04660874977707863
1758447388589174500,4.943174560546875,-0.007526664063334465,-0.023182056844234467,-0.052650824189186096
1758447388599147500,4.9531474609375,-0.017288479954004288,-0.03306824341416359,-0.05532889813184738
1758447388609119700,4.96311962890625,-0.04180143401026726,-0.045205287635326385,-0.05252610146999359
1758447388619091500,4.973091552734375,-0.06085582077503204,-0.061745915561914444,-0.047018952667713165
1758447388629063700,4.983063720703125,-0.06142614781856537,-0.07754456251859665,-0.03207003325223923
1758447388639036700,4.99303662109375,-0.053358372300863266,-0.08807789534330368,-0.01078258641064167
1758447388649008600,5.003008544921875,-0.04524197056889534,-0.07436848431825638,0.012050502002239227
1758447388658980600,5.012980712890625,-0.04519776254892349,-0.04253305867314339,0.026652082800865173
1758447388668953600,5.02295361328125,-0.04996759817004204,-0.0042874859645962715,0.028642944991588593
1758447388678925600,5.032925537109375,-0.047608837485313416,0.025394242256879807,0.018608953803777695
1758447388688897500,5.0428974609375,-0.041175514459609985,0.0526668019592762,-0.0014752019196748734
1758447388698869500,5.052869384765625,-0.0343887135386467,0.07144954055547714,-0.030127085745334625
1758447388708842500,5.062842529296875,-0.027438702061772346,0.06281429529190063,-0.0625474825501442
1758447388718814700,5.072814697265625,-0.03150881081819534,0.04917891323566437,-0.07925402373075485
1758447388728786400,5.082786376953125,-0.04295842722058296,0.03407805785536766,-0.0803932175040245
1758447388738759400,5.092759521484375,-0.050557754933834076,0.004479685798287392,-0.07258988916873932
1758447388748731600,5.102731689453125,-0.059893809258937836,-0.022248994559049606,-0.05794567987322807
1758447388758702600,5.11270263671875,-0.06898930668830872,-0.03833794966340065,-0.05246409401297569
1758447388768674600,5.122674560546875,-0.07698442041873932,-0.0372590571641922,-0.05898178741335869
1758447388778647300,5.132647216796875,-0.07709413766860962,-0.025729697197675705,-0.07938772439956665
1758447388788619500,5.14261962890625,-0.0728023424744606,-0.017658118158578873,-0.11069653928279877
1758447388798591500,5.152591552734375,-0.06540460884571075,-0.007709347177296877,-0.1512809842824936
1758447388808564500,5.162564453125,-0.05519656464457512,0.036465514451265335,-0.18243341147899628
1758447388818536400,5.172536376953125,-0.04083147272467613,0.09382014721632004,-0.20328941941261292
1758447388828508700,5.1825087890625,-0.02990631014108658,0.14316117763519287,-0.22037257254123688
1758447388838480400,5.19248046875,-0.027178168296813965,0.18107978999614716,-0.23850417137145996
1758447388848453600,5.20245361328125,-0.03387221321463585,0.20943832397460938,-0.25733327865600586
1758447388858425300,5.21242529296875,-0.045229263603687286,0.20945510268211365,-0.2790233790874481
1758447388868397600,5.2223974609375,-0.058113522827625275,0.19382797181606293,-0.31208086013793945
1758447388878370600,5.23237060546875,-0.062879778444767,0.20303985476493835,-0.3373614549636841
1758447388888342300,5.24234228515625,-0.05724069103598595,0.2066870927810669,-0.3500792980194092
1758447388898314500,5.252314453125,-0.038167666643857956,0.18743270635604858,-0.3432570993900299
1758447388908286500,5.262286376953125,-0.016736596822738647,0.14879833161830902,-0.3101995885372162
1758447388918259500,5.272259521484375,-0.0043856557458639145,0.1033080667257309,-0.261647492647171
1758447388928231400,5.2822314453125,-0.00641897926107049,0.060216035693883896,-0.21823740005493164
1758447388938203600,5.29220361328125,-0.003725457936525345,0.021689685061573982,-0.18990376591682434
1758447388948176400,5.30217626953125,0.009619299322366714,-0.05307525396347046,-0.18467678129673004
1758447388958148400,5.3121484375,0.028946924954652786,-0.0227517019957304,-0.17690780758857727
1758447388968120600,5.32212060546875,0.05542711541056633,-0.026563959196209908,-0.18067102134227753
1758447388978092500,5.332092529296875,0.06758444756269455,-0.07452136278152466,-0.19656316936016083
1758447388988065500,5.3420654296875,0.0660056471824646,-0.10589699447154999,-0.21443642675876617
1758447388998037500,5.35203759765625,0.05446271225810051,-0.12439344823360443,-0.22308610379695892
1758447389008009500,5.362009521484375,0.0485558956861496,-0.12021619081497192,-0.2238188087940216
1758447389017982500,5.371982421875,0.04347431659698486,-0.11915439367294312,-0.22169892489910126
1758447389027954700,5.38195458984375,0.036356180906295776,-0.06359805911779404,-0.2218920737504959
1758447389037926400,5.391926513671875,0.03511754423379898,0.009409839287400246,-0.23596180975437164
1758447389047898600,5.401898681640625,0.05199822038412094,0.043164946138858795,-0.2714237868785858
1758447389057871600,5.41187158203125,0.06499524414539337,0.049422573298215866,-0.31492093205451965
1758447389067843300,5.42184326171875,0.0705311968922615,0.06783664971590042,-0.34763243794441223
1758447389077815600,5.431815673828125,0.07510757446289062,0.057107843458652496,-0.33882588148117065
1758447389087788500,5.44178857421875,0.02763436734676361,0.09049581736326218,-0.3332344591617584
1758447389097760500,5.451760498046875,-0.008070101030170918,0.060275863856077194,-0.31427568197250366
1758447389107732500,5.461732421875,-0.007816529832780361,0.042247265577316284,-0.26839303970336914
1758447389117704400,5.471704345703125,0.011465288698673248,0.10632851719856262,-0.19126255810260773
1758447389127677400,5.481677490234375,0.034503307193517685,0.16847321391105652,-0.11860890686511993
1758447389137649700,5.491649658203125,0.04392903298139572,0.2062152624130249,-0.0982343927025795
1758447389147621400,5.501621337890625,0.06690540909767151,0.22290880978107452,-0.14394208788871765
1758447389157594400,5.511594482421875,0.13216325640678406,0.27336692810058594,-0.23371832072734833
1758447389167566600,5.521566650390625,0.2015065848827362,0.3074618875980377,-0.33050674200057983
1758447389177538300,5.531538330078125,0.29532310366630554,0.5307817459106445,-0.40694159269332886
1758447389187510500,5.541510498046875,0.3663058876991272,0.8111341595649719,-0.5106143355369568
1758447389197483500,5.5514833984375,0.3527522683143616,0.8481752872467041,-0.6307026743888855
1758447389207455500,5.56145556640625,0.25688448548316956,0.7760853171348572,-0.7876548171043396
1758447389217427500,5.571427490234375,0.06473101675510406,0.6818844676017761,-0.9875580668449402
1758447389227400400,5.581400390625,-0.17333488166332245,0.5143483877182007,-1.2188206911087036
1758447389237372400,5.591372314453125,-0.3538644313812256,0.2825812101364136,-1.493737816810608
1758447389247344400,5.601344482421875,-0.409992516040802,0.23149287700653076,-1.8153663873672485
1758447389257316600,5.611316650390625,-0.32229170203208923,0.5585842132568359,-2.151360511779785
1758447389267289300,5.621289306640625,-0.11075322329998016,0.650911808013916,-2.381016254425049
1758447389277261600,5.631261474609375,0.14932948350906372,0.4704948663711548,-2.5051259994506836
1758447389287233500,5.641233642578125,0.4083942770957947,-0.13480396568775177,-2.459327459335327
1758447389297205500,5.65120556640625,0.6584674715995789,-1.0852798223495483,-2.1785888671875
1758447389307178500,5.661178466796875,0.7796916961669922,-0.9776719212532043,-2.046435832977295
1758447389317150700,5.671150634765625,0.787701427936554,-0.4685306251049042,-1.9160858392715454
1758447389327122400,5.681122314453125,0.7154369950294495,0.26299548149108887,-1.797522783279419
1758447389337095400,5.691095458984375,0.6253065466880798,0.9863923192024231,-1.6339530944824219
1758447389347067600,5.701067626953125,0.5965545177459717,1.4816731214523315,-1.350644588470459
1758447389357039400,5.711039306640625,0.6708982586860657,1.7194808721542358,-0.9462670087814331
1758447389367011600,5.721011474609375,0.8379563093185425,1.8790544271469116,-0.4761139452457428
1758447389376984600,5.730984619140625,1.0919127464294434,2.182507276535034,-0.020445767790079117
1758447389386956500,5.74095654296875,1.445562481880188,2.7229175567626953,0.38824161887168884
1758447389396928500,5.750928466796875,1.7718042135238647,3.564824342727661,0.7415669560432434
1758447389406901500,5.760901611328125,1.9278326034545898,4.151610374450684,1.1169102191925049
1758447389416873500,5.77087353515625,1.522895336151123,4.0441060066223145,1.3864808082580566
1758447389426845400,5.780845458984375,0.16487769782543182,2.6401853561401367,1.2128673791885376
1758447389436817400,5.7908173828125,-1.2664283514022827,1.1744996309280396,0.9654855728149414
1758447389446790400,5.800790283203125,-1.7445282936096191,1.0364750623703003,1.1017507314682007
1758447389456762600,5.8107626953125,-1.7492942810058594,1.5233927965164185,1.1599818468093872
1758447389466734300,5.820734375,-1.5242036581039429,1.3958582878112793,0.9461533427238464
1758447389476707600,5.83070751953125,-1.2775222063064575,0.7515519857406616,0.5781750679016113
1758447389486679600,5.840679443359375,-1.121290922164917,0.12356910109519958,0.38646942377090454
1758447389496651500,5.850651611328125,-1.0719196796417236,-0.2665368616580963,0.4573233723640442
1758447389506623500,5.86062353515625,-1.0092161893844604,-0.2273041158914566,0.7056354284286499
1758447389516596500,5.870596435546875,-0.9601206183433533,-0.8525270223617554,0.8758884072303772
1758447389526568400,5.880568359375,-0.8510690331459045,-1.7956470251083374,1.0171852111816406
1758447389536540400,5.89054052734375,-0.7679200768470764,-2.3701205253601074,1.1675260066986084
1758447389546513700,5.900513671875,-0.6996013522148132,-2.7559399604797363,1.2046949863433838
1758447389556485400,5.9104853515625,-0.6630153656005859,-3.147045373916626,1.0811985731124878
1758447389566457600,5.92045751953125,-0.6491038203239441,-3.7571487426757812,0.8132994771003723
1758447389576429600,5.9304296875,-0.5839804410934448,-4.148096561431885,0.5126317739486694
1758447389586402300,5.94040234375,-0.39900413155555725,-4.300867080688477,0.266088604927063
1758447389596374500,5.95037451171875,-0.2480316311120987,-4.641552925109863,0.13903427124023438
1758447389606346500,5.960346435546875,-0.2680639326572418,-3.4992449283599854,-0.17129774391651154
1758447389616319500,5.970319580078125,-0.26948630809783936,-1.687679409980774,-0.2553207576274872
1758447389626291500,5.98029150390625,-0.08958809822797775,-0.4312760829925537,-0.45155805349349976
1758447389636263700,5.990263671875,0.09970566630363464,-0.2449789196252823,-0.8672026991844177
1758447389646235400,6.0002353515625,0.16972139477729797,-0.0518001951277256,-1.266601800918579
1758447389656208600,6.010208740234375,0.18593551218509674,0.3448440730571747,-1.547187089920044
1758447389666180600,6.0201806640625,0.18647217750549316,0.23929919302463531,-1.6298816204071045
1758447389676152600,6.030152587890625,0.21378421783447266,-0.20144438743591309,-1.4998679161071777
1758447389686125600,6.04012548828125,0.28990188241004944,-0.823056697845459,-1.1937545537948608
1758447389696097500,6.05009765625,0.3750239610671997,-1.6614272594451904,-0.7938817143440247
1758447389706069500,6.060069580078125,0.40256908535957336,-2.625422477722168,-0.4257572293281555
1758447389716041500,6.07004150390625,0.33409228920936584,-3.461137056350708,-0.1898096799850464
1758447389726014700,6.0800146484375,0.22727105021476746,-3.80961012840271,-0.01583707518875599
1758447389735986400,6.089986328125,0.23278166353702545,-4.560448169708252,-0.0010629226453602314
1758447389745958700,6.099958740234375,0.3997591733932495,-5.067746639251709,-0.010278791189193726
1758447389755932000,6.109931884765625,0.5964256525039673,-5.352197647094727,0.03910740092396736
1758447389765903600,6.119903564453125,0.8875900506973267,-5.710341453552246,0.16330328583717346
1758447389775875800,6.129875732421875,1.2694766521453857,-6.135878086090088,0.3419278860092163
1758447389785847600,6.13984765625,1.654222011566162,-6.749678611755371,0.5711821913719177
1758447389795820800,6.14982080078125,2.018183469772339,-7.3977813720703125,0.8454982042312622
1758447389805792800,6.159792724609375,2.344376564025879,-7.829030513763428,1.1477206945419312
1758447389815764700,6.1697646484375,2.645033359527588,-8.02094841003418,1.4211983680725098
1758447389825737700,6.17973779296875,2.938438892364502,-8.015262603759766,1.644142985343933
1758447389835709700,6.189709716796875,3.2177884578704834,-7.804014205932617,1.7673463821411133
1758447389845681700,6.199681640625,3.447554349899292,-7.299209117889404,1.6985782384872437
1758447389855654000,6.20965380859375,3.630112648010254,-6.432270526885986,1.3690447807312012
1758447389865627000,6.219626953125,3.766770839691162,-5.216983795166016,0.8579006791114807
1758447389875598600,6.2295986328125,3.8177249431610107,-3.8729872703552246,0.329609751701355
1758447389885570800,6.23957080078125,3.706439733505249,-2.9499423503875732,-0.023394636809825897
1758447389895542800,6.249542724609375,3.4957876205444336,-2.8077540397644043,-0.08767855167388916
1758447389905515800,6.259515869140625,3.3242640495300293,-3.2790839672088623,0.1970311552286148
1758447389915487700,6.26948779296875,3.274738311767578,-3.970449209213257,0.7755555510520935
1758447389925460000,6.2794599609375,3.3138046264648438,-4.284785270690918,1.3863017559051514
1758447389935432700,6.2894326171875,3.1240737438201904,-4.021143913269043,1.8041106462478638
1758447389945404700,6.29940478515625,2.688140392303467,-3.3777806758880615,1.9198658466339111
1758447389955377000,6.309376953125,2.3046109676361084,-2.45215106010437,1.7683193683624268
1758447389965348600,6.3193486328125,2.0493886470794678,-1.3720998764038086,1.4816681146621704
1758447389975321900,6.32932177734375,1.851751685142517,-0.39755499362945557,1.1297273635864258
1758447389985293800,6.3392939453125,1.6726207733154297,0.1546706259250641,0.8364213109016418
1758447389995265800,6.349265869140625,1.6218953132629395,0.23100268840789795,0.6818386316299438
1758447390005238800,6.35923876953125,1.6768349409103394,0.11280831694602966,0.5432446002960205
1758447390015210800,6.369210693359375,1.7242357730865479,0.07587932795286179,0.3746563792228699
1758447390025182700,6.3791826171875,1.6606762409210205,0.11365803331136703,0.23086576163768768
1758447390035155000,6.389155029296875,1.4651280641555786,0.20353278517723083,0.14396095275878906
1758447390045127700,6.399127685546875,1.1826852560043335,0.33537557721138,0.12904919683933258
1758447390055099600,6.409099609375,0.9067732691764832,0.43592268228530884,0.15960924327373505
1758447390065071900,6.41907177734375,0.7494723796844482,0.40924009680747986,0.21478284895420074
1758447390075044600,6.429044677734375,0.6322024464607239,0.2824440598487854,0.34606045484542847
1758447390085016800,6.439016845703125,0.5815078020095825,-0.07139553129673004,0.5581462383270264
1758447390094988800,6.44898876953125,0.6374099254608154,-0.6924700140953064,0.8652681112289429
1758447390104960800,6.458960693359375,0.7802847027778625,-1.632871150970459,1.3004618883132935
1758447390114933800,6.468933837890625,0.9703302979469299,-2.584886074066162,1.8575482368469238
1758447390124905700,6.47890576171875,1.1362844705581665,-3.2635068893432617,2.4190728664398193
1758447390134877700,6.488877685546875,1.2091411352157593,-3.6231424808502197,2.885119915008545
1758447390144850700,6.4988505859375,1.1394317150115967,-3.7029871940612793,3.252143144607544
1758447390154823000,6.508822998046875,0.8520957827568054,-3.5364205837249756,3.441417932510376
1758447390164794600,6.518794677734375,0.4503692090511322,-3.2463858127593994,3.391523599624634
1758447390174766800,6.528766845703125,0.04277455061674118,-2.900817632675171,3.167797565460205
1758447390184739800,6.53873974609375,-0.3018404245376587,-2.4985928535461426,2.8852670192718506
1758447390194711800,6.5487119140625,-0.5566325187683105,-2.1035544872283936,2.6042709350585938
1758447390204683800,6.558683837890625,-0.7999531626701355,-1.769222617149353,2.429513454437256
1758447390214656800,6.56865673828125,-1.0990102291107178,-1.4874467849731445,2.3810226917266846
1758447390224628700,6.578628662109375,-1.461445689201355,-1.1490029096603394,2.381653070449829
1758447390234600700,6.5886005859375,-1.897057056427002,-0.851956844329834,2.343289852142334
1758447390244572700,6.59857275390625,-2.2520484924316406,-0.5395742058753967,2.0925474166870117
1758447390254545700,6.608545654296875,-2.3487627506256104,0.11614927649497986,1.3528480529785156
1758447390264518000,6.618517822265625,-2.302011489868164,0.5320534110069275,0.4304693937301636
1758447390274489600,6.628489501953125,-2.1684935092926025,0.744227945804596,-0.23015619814395905
1758447390284462600,6.638462646484375,-1.9457238912582397,0.7852055430412292,-0.46715694665908813
1758447390294434800,6.648434814453125,-1.716856598854065,0.518415093421936,-0.41554197669029236
1758447390304406500,6.658406494140625,-1.3253952264785767,0.23353391885757446,-0.5651401281356812
1758447390314378800,6.668378662109375,-0.7718979716300964,-0.00840095616877079,-0.901073694229126
1758447390324351700,6.678351806640625,-0.3319222629070282,-0.20177531242370605,-0.946584939956665
1758447390334323700,6.68832373046875,0.0771070346236229,-0.45646941661834717,-0.7496210336685181
1758447390344295700,6.698295654296875,-0.22432060539722443,-0.5320027470588684,-0.31688201427459717
1758447390354268700,6.7082685546875,-0.525506854057312,-0.7949941754341125,-0.09647482633590698
1758447390364240600,6.71824072265625,-0.5275811553001404,-0.9624857306480408,-0.06093042343854904
1758447390374212900,6.728212890625,-0.31314927339553833,-0.8167625665664673,-0.005050645209848881
1758447390384184800,6.738184814453125,-0.21982014179229736,-0.5599970817565918,-0.17057541012763977
1758447390394157600,6.748157470703125,-0.054450877010822296,-0.30782952904701233,-0.3463064730167389
1758447390404129800,6.7581298828125,0.04311756789684296,-0.24356979131698608,-0.20070888102054596
1758447390414101800,6.768101806640625,0.30423253774642944,-0.4883459508419037,-0.24318230152130127
1758447390424073700,6.77807373046875,0.6127451658248901,-0.7545410394668579,0.03951301798224449
1758447390434046700,6.788046630859375,1.2380411624908447,-1.2832711935043335,0.3333808481693268
1758447390444019000,6.79801904296875,1.4759001731872559,-1.6568822860717773,0.5652977228164673
1758447390453990700,6.80799072265625,1.5067890882492065,-1.7114592790603638,0.6399080157279968
1758447390463963600,6.817963623046875,1.4944517612457275,-1.8129150867462158,0.6356043815612793
1758447390473936000,6.827935791015625,1.4207391738891602,-1.6611050367355347,0.6445789337158203
1758447390483907600,6.837907470703125,1.4299453496932983,-1.1950409412384033,0.4994978606700897
1758447390493879800,6.8478798828125,1.4745903015136719,-0.7479409575462341,0.22572915256023407
1758447390503852800,6.857852783203125,1.8996578454971313,0.028997065499424934,-0.37070876359939575
1758447390513824800,6.86782470703125,2.316333770751953,0.4443194270133972,-1.087388038635254
1758447390523796700,6.877796630859375,2.3297040462493896,0.6890904307365417,-1.4569557905197144
1758447390533769700,6.887769775390625,1.9385336637496948,1.076935052871704,-1.3537033796310425
1758447390543741700,6.89774169921875,1.5089417695999146,1.5609838962554932,-1.120609164237976
1758447390553714000,6.9077138671875,1.1827175617218018,1.7745907306671143,-0.8122438788414001
1758447390563685600,6.917685546875,0.9624719619750977,1.735518455505371,-0.5116350054740906
1758447390573658600,6.92765869140625,0.900363028049469,1.590954303741455,-0.46611469984054565
1758447390583630800,6.937630859375,1.035719633102417,1.430038332939148,-0.7931435704231262
1758447390593602600,6.9476025390625,1.3996834754943848,0.8959000706672668,-1.1889513731002808
1758447390603575800,6.957575927734375,1.8062928915023804,0.20560219883918762,-1.4598886966705322
1758447390613547800,6.9675478515625,2.10400652885437,-0.38536521792411804,-1.585435152053833
1758447390623519700,6.977519775390625,2.1882822513580322,-1.0513116121292114,-1.5491963624954224
1758447390633491700,6.98749169921875,2.1694629192352295,-1.6701823472976685,-1.4312292337417603
1758447390643464700,6.997464599609375,2.2635488510131836,-1.9656533002853394,-1.2993807792663574
1758447390653436700,7.007436767578125,2.483288049697876,-1.8676927089691162,-1.1586928367614746
1758447390663408600,7.01740869140625,2.758592128753662,-1.4800927639007568,-1.0402905941009521
1758447390673382000,7.0273818359375,3.0272598266601562,-1.0123181343078613,-0.9209255576133728
1758447390683353600,7.037353515625,3.275376558303833,-0.6029824018478394,-0.7923467755317688
1758447390693325800,7.047325927734375,3.4481751918792725,-0.07903312146663666,-0.6197878122329712
1758447390703297800,7.0572978515625,3.5120272636413574,0.6344226598739624,-0.3368266820907593
1758447390713270800,7.067270751953125,3.5754849910736084,1.0162765979766846,0.022157572209835052
1758447390723242800,7.07724267578125,3.6881179809570312,0.9409348368644714,0.3436708450317383
1758447390733215000,7.087215087890625,3.7491416931152344,0.8307002186775208,0.5677692294120789
1758447390743187700,7.097187744140625,3.633016586303711,0.9138762354850769,0.6704485416412354
1758447390753159400,7.107159423828125,3.2953405380249023,0.822793185710907,0.65440434217453
1758447390763131600,7.117131591796875,2.8527472019195557,0.42307379841804504,0.5711036920547485
1758447390773103400,7.127103271484375,2.385535478591919,0.039077915251255035,0.4854029417037964
1758447390783076600,7.13707666015625,1.8890926837921143,-0.09571093320846558,0.4012105464935303
1758447390793048600,7.147048583984375,1.283759355545044,-0.07533242553472519,0.28457581996917725
1758447390803020500,7.1570205078125,0.8457192778587341,-0.08850335329771042,0.1554524153470993
1758447390812993500,7.16699365234375,0.5584933757781982,-0.1080634742975235,0.0025781835429370403
1758447390822965500,7.176965576171875,0.45166510343551636,-0.054671481251716614,-0.042382869869470596
1758447390832937500,7.1869375,0.5634441375732422,0.017093786969780922,0.032002683728933334
1758447390842909700,7.19690966796875,0.8079545497894287,0.07854484021663666,0.1798388808965683
1758447390852882700,7.206882568359375,1.062187671661377,0.060468364506959915,0.3128161132335663
1758447390862854400,7.2168544921875,1.3636668920516968,0.008808558806777,0.38553276658058167
1758447390872826600,7.22682666015625,1.7435723543167114,-0.0009205011883750558,0.4366784989833832
1758447390882798600,7.236798583984375,2.231773853302002,0.06228698790073395,0.5070318579673767
1758447390892771600,7.246771484375,2.6436476707458496,0.14775021374225616,0.5487649440765381
1758447390902743600,7.25674365234375,2.9510726928710938,0.24950428307056427,0.5300335884094238
1758447390912715800,7.2667158203125,3.1700918674468994,0.33050939440727234,0.46339038014411926
1758447390922688500,7.2766884765625,3.3290791511535645,0.41999590396881104,0.3765806257724762
1758447390932660500,7.286660400390625,3.436063289642334,0.5336247086524963,0.2687931954860687
1758447390942632700,7.2966328125,3.508549213409424,0.5276672840118408,0.16008204221725464
1758447390952604400,7.3066044921875,3.57220721244812,0.467950701713562,0.06455258280038834
1758447390962577700,7.31657763671875,3.619410514831543,0.37304744124412537,0.016160281375050545
1758447390972549600,7.326549560546875,3.6535518169403076,0.0030694124288856983,-0.010436974465847015
1758447390982521600,7.336521484375,4.654434680938721,-0.8608148097991943,0.09136230498552322
1758447390992494600,7.34649462890625,6.592890739440918,-2.3466238975524902,0.0799139067530632
1758447391002466600,7.356466552734375,8.75115966796875,-3.5253262519836426,0.1375393271446228
1758447391012438500,7.3664384765625,9.007355690002441,-5.114810466766357,-0.20361079275608063
1758447391022410800,7.37641064453125,7.076245307922363,-7.417053699493408,-0.9971703886985779
1758447391032383700,7.3863837890625,4.178069114685059,-9.416802406311035,-1.7262370586395264
1758447391042355500,7.39635546875,1.6204535961151123,-9.903247833251953,-2.2017736434936523
1758447391052327700,7.40632763671875,-0.1677064746618271,-9.245253562927246,-2.372741460800171
1758447391062300700,7.41630078125,-0.8197546601295471,-7.876895427703857,-2.096653938293457
1758447391072272600,7.426272705078125,-0.824543833732605,-6.003629207611084,-1.3637776374816895
1758447391082244600,7.43624462890625,-0.6892654895782471,-3.8875272274017334,-0.28258955478668213
1758447391092216600,7.446216552734375,-0.6294980049133301,-1.808311104774475,0.9209381937980652
1758447391102189600,7.456189453125,-0.6574654579162598,0.04273765906691551,1.7143170833587646
1758447391112161500,7.46616162109375,-0.735966682434082,1.6959339380264282,2.0524396896362305
1758447391122133500,7.476133544921875,-0.7723367214202881,3.197373628616333,2.0388753414154053
1758447391132106500,7.4861064453125,-0.7215872406959534,4.147124767303467,1.7207156419754028
1758447391142078700,7.49607861328125,-0.6307895183563232,4.413837909698486,1.1088224649429321
1758447391152050400,7.506050537109375,-0.5126460790634155,4.2333173751831055,0.44666340947151184
1758447391162022700,7.516022705078125,-0.37049177289009094,3.730908155441284,-0.08706620335578918
1758447391171995600,7.52599560546875,-0.24194498360157013,3.0627388954162598,-0.4657759666442871
1758447391181967600,7.535967529296875,-0.13203279674053192,2.3926022052764893,-0.6870018839836121
1758447391191939600,7.545939697265625,-0.02116299979388714,1.832755446434021,-0.8087568283081055
1758447391201912600,7.55591259765625,0.05992576479911804,1.397444725036621,-0.8583423495292664
1758447391211884500,7.565884521484375,0.1011565551161766,1.0750744342803955,-0.8291415572166443
1758447391221856500,7.5758564453125,0.12665610015392303,0.8504589796066284,-0.7231867909431458
1758447391231828700,7.585828857421875,0.13703256845474243,0.6568338871002197,-0.5850861668586731
1758447391241801500,7.595801513671875,0.1342775672674179,0.471418172121048,-0.4518633186817169
1758447391251773700,7.605773681640625,0.12736773490905762,0.3138146996498108,-0.32843032479286194
1758447391261745700,7.61574560546875,0.11558857560157776,0.1835096776485443,-0.22384637594223022
1758447391271718400,7.625718505859375,0.1045745387673378,0.0726313665509224,-0.15393388271331787
1758447391281690600,7.635690673828125,0.08545186370611191,0.02313300035893917,-0.13762344419956207
1758447391291662600,7.64566259765625,0.08941411226987839,-0.03222160041332245,-0.13167020678520203
1758447391301634600,7.655634521484375,0.10941444337368011,-0.09075254201889038,-0.10360394418239594
1758447391311607600,7.665607666015625,0.08101876080036163,-0.13911953568458557,-0.017489299178123474
1758447391321579800,7.675579833984375,0.044558603316545486,-0.15096232295036316,0.11113505065441132
1758447391331551500,7.685551513671875,0.03574274107813835,-0.11502004414796829,0.23728713393211365
1758447391341524500,7.6955244140625,0.022410234436392784,-0.08193149417638779,0.3250099718570709
1758447391351496700,7.70549658203125,0.01140392292290926,-0.058096207678318024,0.34617626667022705
1758447391361468700,7.71546875,0.0017634687246754766,-0.060479022562503815,0.31426501274108887
1758447391371440600,7.725440673828125,-0.0057181501761078835,-0.08923263847827911,0.2824474275112152
1758447391381413600,7.73541357421875,-0.01615815982222557,-0.15448696911334991,0.28260117769241333
1758447391391385600,7.745385498046875,-0.03445008024573326,-0.24759401381015778,0.30842530727386475
1758447391401357600,7.755357666015625,-0.04931896552443504,-0.33615490794181824,0.32360023260116577
1758447391411329500,7.76532958984375,-0.046379901468753815,-0.3828901946544647,0.30434027314186096
1758447391421302500,7.775302490234375,-0.02832755073904991,-0.3868604004383087,0.24321013689041138
1758447391431274800,7.785274658203125,-0.0012485284823924303,-0.3973250091075897,0.13741447031497955
1758447391441246500,7.79524658203125,0.0033693555742502213,-0.35549044609069824,0.05786222964525223
1758447391451219500,7.805219482421875,0.014393511228263378,-0.24203738570213318,0.05980820208787918
1758447391461191700,7.815191650390625,0.020046718418598175,-0.12709210813045502,0.07184843719005585
1758447391471163400,7.825163330078125,0.018192891031503677,-0.02789921686053276,0.05843356251716614
1758447391481135600,7.835135498046875,0.02093937061727047,0.044667743146419525,0.023631803691387177
1758447391491108600,7.845108642578125,0.024569524452090263,0.07606055587530136,-0.01769273355603218
1758447391501080600,7.85508056640625,0.03031308762729168,0.07384014129638672,-0.05719191953539848
1758447391511052500,7.865052490234375,0.028659798204898834,0.038740482181310654,-0.09019887447357178
1758447391521025500,7.875025634765625,0.02855072356760502,-0.012177523225545883,-0.1143597960472107
1758447391530997500,7.88499755859375,0.019909031689167023,-0.0561566986143589,-0.13278727233409882
1758447391540969700,7.8949697265625,0.006719078868627548,-0.07976802438497543,-0.1454056352376938
1758447391550941400,7.90494140625,-0.006570094730705023,-0.07150103896856308,-0.15371602773666382
1758447391560914400,7.91491455078125,-0.019964348524808884,-0.0416821651160717,-0.15131382644176483
1758447391570886700,7.92488671875,-0.020647715777158737,0.004756973125040531,-0.13572101294994354
1758447391580858400,7.9348583984375,-0.025023404508829117,0.051409147679805756,-0.1139659732580185
1758447391590831600,7.94483154296875,-0.024658551439642906,0.09011127054691315,-0.0958239883184433
1758447391600803600,7.954803466796875,-0.020142855122685432,0.10107887536287308,-0.08937238901853561
1758447391610775600,7.964775634765625,-0.014744095504283905,0.10238169133663177,-0.0791410580277443
1758447391620747500,7.97474755859375,-0.0054062167182564735,0.10199547559022903,-0.07515284419059753
1758447391630720500,7.984720458984375,-0.028022579848766327,0.06446380913257599,-0.10095620900392532
1758447391640692500,7.9946923828125,-0.06911177188158035,0.019958550110459328,-0.11947605758905411
1758447391650664400,8.00466455078125,-0.010039661079645157,0.06652658432722092,-0.07169521600008011
1758447391660637700,8.0146376953125,0.08696392923593521,0.17534105479717255,0.014202868565917015
1758447391670609400,8.024609375,0.1560596376657486,0.29210972785949707,0.0974237248301506
1758447391680581600,8.03458154296875,0.14892156422138214,0.33891987800598145,0.14014536142349243
1758447391690553600,8.0445537109375,0.09392889589071274,0.29287222027778625,0.14558912813663483
1758447391700526600,8.054526611328125,0.06660673022270203,0.17718207836151123,0.11476141214370728
1758447391710498600,8.06449853515625,0.048593636602163315,0.02072269655764103,0.06954067200422287
1758447391720470800,8.074470703125,0.053923916071653366,-0.14273272454738617,0.04467196762561798
1758447391730443500,8.084443603515625,0.052896201610565186,-0.2539719045162201,0.041266050189733505
1758447391740415500,8.09441552734375,0.023959090933203697,-0.29531824588775635,0.03752033784985542
1758447391750387700,8.1043876953125,-0.010590631514787674,-0.2571985721588135,0.04063010960817337
1758447391760359700,8.114359619140625,-0.04736774414777756,-0.1333252191543579,0.0573696531355381
1758447391770333000,8.1243330078125,-0.10148504376411438,0.037483543157577515,0.0826430544257164
1758447391780305000,8.134304931640624,-0.15015019476413727,0.20392630994319916,0.09954937547445297
1758447391790276900,8.14427685546875,-0.1771213710308075,0.32737502455711365,0.09562813490629196
1758447391800249900,8.154249755859375,-0.18092283606529236,0.3946783244609833,0.07093803584575653
1758447391810221800,8.164221923828125,-0.1687748283147812,0.41053637862205505,0.03718246519565582
1758447391820193800,8.17419384765625,-0.14483845233917236,0.3881396949291229,0.0002493872307240963
1758447391830165800,8.184165771484375,-0.11057794839143753,0.3286382853984833,-0.03995689004659653
1758447391840139000,8.194138916015625,-0.06782995164394379,0.23911291360855103,-0.08045504987239838
1758447391850110700,8.20411083984375,-0.018711406737565994,0.137608140707016,-0.11348596960306168
1758447391860083000,8.2140830078125,0.030070437118411064,0.041727568954229355,-0.13331422209739685
1758447391870055000,8.224054931640625,0.07418756932020187,-0.03166329488158226,-0.13629616796970367
1758447391880027600,8.234027587890624,0.11081919074058533,-0.07689331471920013,-0.12911008298397064
1758447391890000000,8.243999755859376,0.14692233502864838,-0.08601650595664978,-0.11211006343364716
1758447391899971800,8.253971923828125,0.1749545782804489,-0.07196179777383804,-0.0843849629163742
1758447391909944800,8.26394482421875,0.17127355933189392,-0.06137973070144653,-0.05454744026064873
1758447391919916800,8.273916748046876,0.14672385156154633,-0.07676053792238235,-0.01743517443537712
1758447391929889000,8.283888916015625,0.10932961106300354,-0.12060415744781494,0.024046488106250763
1758447391939860700,8.29386083984375,0.06705988198518753,-0.17920663952827454,0.06885275989770889
1758447391949834000,8.303833984375,0.025489000603556633,-0.22874756157398224,0.1130436509847641
1758447391959806000,8.313805908203125,-0.012704458087682724,-0.24912691116333008,0.14468064904212952
1758447391969778000,8.32377783203125,-0.05307292193174362,-0.22685116529464722,0.16993114352226257
1758447391979751000,8.3337509765625,-0.0833754688501358,-0.15519657731056213,0.18601761758327484
1758447391989723000,8.343722900390626,-0.10324344784021378,-0.0475822314620018,0.19081395864486694
1758447391999694800,8.35369482421875,-0.1095229908823967,0.06434790790081024,0.181869238615036
1758447392009666800,8.363666748046874,-0.10026105493307114,0.14575809240341187,0.15480965375900269
1758447392019640000,8.37364013671875,-0.07813721895217896,0.18099404871463776,0.11668269336223602
1758447392029611800,8.38361181640625,-0.04723869264125824,0.1650180071592331,0.0636168122291565
1758447392039584000,8.393583984375,-0.016729293391108513,0.10315258800983429,-0.0006712139584124088
1758447392049557000,8.403556884765624,0.011118317022919655,0.02060764655470848,-0.06108316034078598
1758447392059528700,8.41352880859375,0.030330056324601173,-0.053322430700063705,-0.11039330065250397
1758447392069501000,8.4235009765625,0.04210628941655159,-0.09677056968212128,-0.13467919826507568
1758447392079473000,8.433472900390624,0.04306761547923088,-0.11719019711017609,-0.13060078024864197
1758447392089446000,8.44344580078125,0.03626483678817749,-0.10984093695878983,-0.10598145425319672
1758447392099417900,8.45341796875,0.022230584174394608,-0.07902620732784271,-0.07448804378509521
1758447392109389800,8.463389892578125,0.007976016029715538,-0.03056253492832184,-0.04628143832087517
1758447392119362800,8.47336279296875,-0.008468927815556526,0.021521547809243202,-0.02323821373283863
1758447392129335000,8.4833349609375,-0.02600131742656231,0.06673163175582886,0.005714341998100281
1758447392139306800,8.493306640625,-0.04290245845913887,0.08902189880609512,0.03677690029144287
1758447392149279000,8.503279052734374,-0.05088102072477341,0.08245427161455154,0.06500747054815292
1758447392159252000,8.513251953125,-0.05288045108318329,0.05741081386804581,0.08220319449901581
1758447392169223700,8.5232236328125,-0.0431244894862175,0.040244344621896744,0.08433931320905685
1758447392179196000,8.53319580078125,-0.02858077920973301,0.03659301623702049,0.06743758171796799
1758447392189169000,8.5431689453125,-0.012587429024279118,0.04393961280584335,0.040895722806453705
1758447392199140900,8.553140869140625,0.004218827001750469,0.05438860505819321,0.009017802774906158
1758447392209112800,8.56311279296875,0.019195379689335823,0.06771107017993927,-0.022650644183158875
1758447392219085000,8.5730849609375,0.033719081431627274,0.07991226762533188,-0.038004420697689056
1758447392229057800,8.583057861328125,0.040405482053756714,0.09313539415597916,-0.04356084018945694
1758447392239029800,8.59302978515625,0.04304927587509155,0.10026931762695312,-0.04057173803448677
1758447392249002000,8.603001953125,0.04178933426737785,0.09121963381767273,-0.033209428191185
1758447392258974700,8.612974609375,0.037888411432504654,0.06852138042449951,-0.029753997921943665
1758447392268947000,8.622947021484375,0.025182470679283142,0.0476674921810627,-0.02077382057905197
1758447392278919000,8.6329189453125,0.010864365845918655,0.03097669780254364,-0.008949575945734978
1758447392288891000,8.642890869140626,-0.0035412053111940622,0.021981606259942055,0.011256626807153225
1758447392298863900,8.65286376953125,-0.015025442466139793,0.018596777692437172,0.03589840605854988
1758447392308836000,8.662836181640625,-0.021838340908288956,0.013356475159525871,0.0646807849407196
1758447392318807800,8.672807861328126,-0.02370631881058216,0.0059644002467393875,0.08784376829862595
1758447392328780800,8.68278076171875,-0.02694019488990307,-0.011064384132623672,0.09949216991662979
1758447392338753000,8.6927529296875,-0.028034375980496407,-0.026727184653282166,0.10659703612327576
1758447392348724700,8.702724853515624,-0.024719804525375366,-0.03614332526922226,0.10192026197910309
1758447392358697000,8.712697021484376,-0.018085259944200516,-0.03327898681163788,0.08733487874269485
1758447392368670000,8.722669921875,-0.006299175322055817,-0.022471079602837563,0.07311679422855377
1758447392378642000,8.732641845703125,0.0058626439422369,-0.018552683293819427,0.05251793935894966
1758447392388614000,8.74261376953125,0.016189850866794586,-0.023184455931186676,0.027568113058805466
1758447392398587000,8.7525869140625,0.021793827414512634,-0.020384732633829117,-0.003359538037329912
1758447392408558800,8.762558837890625,0.026201892644166946,-0.0007844001520425081,-0.03978332504630089
1758447392418530800,8.77253076171875,0.027011074125766754,0.0344439335167408,-0.06665001809597015
1758447392428502800,8.782502685546875,0.022386228665709496,0.06716752052307129,-0.0820942223072052
1758447392438475800,8.792475830078125,0.017839830368757248,0.08341492712497711,-0.07717008888721466
1758447392448448000,8.802447998046874,0.016330083832144737,0.07723798602819443,-0.06048991158604622
1758447392458419700,8.812419677734376,0.014836659654974937,0.055439043790102005,-0.03578408807516098
1758447392468393000,8.82239306640625,0.004860725253820419,0.026199135929346085,-0.017451420426368713
1758447392478365000,8.832364990234375,-0.008202954195439816,0.013944756239652634,-0.004165664780884981
1758447392488337000,8.8423369140625,-0.01879328116774559,0.011642186902463436,0.004757256247103214
1758447392498308900,8.852308837890625,-0.0212494395673275,0.009938140399754047,0.011792219243943691
1758447392508281900,8.86228173828125,-0.015754273161292076,0.01185055635869503,0.018937747925519943
1758447392518253800,8.87225390625,-0.013259042985737324,0.014359579421579838,0.0250450037419796
1758447392528225800,8.882225830078125,-0.02018459141254425,0.01578836515545845,0.024958716705441475
1758447392538199000,8.892198974609375,-0.020032374188303947,0.013483872637152672,0.024348489940166473
1758447392548170800,8.902170654296874,-0.019238485023379326,0.0008463745471090078,0.021535392850637436
1758447392558143000,8.91214306640625,-0.011664227582514286,-0.00903838500380516,0.02386050671339035
1758447392568114700,8.92211474609375,-0.003792189760133624,0.001136222155764699,0.022181648761034012
1758447392578087700,8.932087646484375,0.00825564656406641,0.013021438382565975,0.018751367926597595
1758447392588060000,8.942059814453126,0.020428422838449478,0.014752225950360298,0.008706990629434586
1758447392598032000,8.952031982421875,0.024784212931990623,0.007755461148917675,-0.005169899668544531
1758447392608003800,8.96200390625,0.021589484065771103,0.011796807870268822,-0.021635690703988075
1758447392617976800,8.971976806640624,0.016937019303441048,0.030053695663809776,-0.02944464609026909
1758447392627948800,8.98194873046875,0.014747368171811104,0.05264050140976906,-0.02896181493997574
1758447392637920800,8.991920654296875,0.011080309748649597,0.07400041818618774,-0.024667127057909966
1758447392647894000,9.00189404296875,0.004664754495024681,0.08267353475093842,-0.014679206535220146
1758447392657865700,9.01186572265625,0.0014989410992711782,0.07358039170503616,-0.007214185316115618
1758447392667838000,9.021837890625,-0.002427889732643962,0.05278030410408974,-0.0011445749551057816
1758447392677810000,9.031809814453124,-0.00459790974855423,0.028290851041674614,0.010924667119979858
1758447392687782700,9.04178271484375,-0.00827200710773468,0.0011167556513100863,0.024737417697906494
1758447392697755000,9.0517548828125,-0.008829711005091667,-0.02822350710630417,0.036621902137994766
1758447392707726800,9.061726806640625,-0.008386827073991299,-0.06036359816789627,0.04453548789024353
1758447392717699800,9.071699951171874,-0.0064893243834376335,-0.0893329381942749,0.04533468931913376
1758447392727671800,9.081671875,-0.002590989461168647,-0.0954454317688942,0.03808077052235603
1758447392737644000,9.09164404296875,0.004583452362567186,-0.07117768377065659,0.025171026587486267
1758447392747615700,9.10161572265625,0.006505988538265228,-0.02629009820520878,0.008466613478958607
1758447392757589000,9.111589111328126,0.00928419828414917,0.023691320791840553,-0.008981607854366302
1758447392767561200,9.121561279296875,0.009248245507478714,0.0423736609518528,-0.019526660442352295
1758447392777533000,9.131532958984375,0.007070425897836685,0.022945161908864975,-0.02503291890025139
1758447392787506200,9.141506103515624,0.0046024746261537075,-0.007552293129265308,-0.028755750507116318
1758447392797478100,9.15147802734375,-0.001029730774462223,-0.01508235651999712,-0.0382210947573185
1758447392807450000,9.1614501953125,-0.007002934347838163,0.013482443057000637,-0.041692525148391724
1758447392817422000,9.171422119140624,-0.007496874779462814,0.0563029870390892,-0.0367172472178936
1758447392827395000,9.18139501953125,-0.007183954119682312,0.08918397128582001,-0.024598266929388046
1758447392837367000,9.191366943359375,-0.0010253933724015951,0.0920223668217659,-0.008445129729807377
1758447392847339300,9.20133935546875,0.0033858665265142918,0.05959145724773407,0.004529258701950312
1758447392857312000,9.21131201171875,0.006924866698682308,0.011772912926971912,0.014106245711445808
1758447392867284000,9.221283935546875,0.010376589372754097,-0.023640736937522888,0.01621999591588974
1758447392877256200,9.231256103515625,0.011726430617272854,-0.032759133726358414,0.012196722440421581
1758447392887229000,9.24122900390625,0.010583668015897274,-0.025978196412324905,0.01732410490512848
1758447392897201200,9.251201171875,0.00482131028547883,-0.019220499321818352,0.02912277914583683
1758447392907173000,9.261173095703125,0.002476663328707218,-0.021776601672172546,0.0430697537958622
1758447392917145000,9.27114501953125,-0.00021278695203363895,-0.023540060967206955,0.04929190129041672
1758447392927118000,9.2811181640625,-0.0030469228513538837,-0.018788713961839676,0.04722342640161514
1758447392937090000,9.291090087890625,-0.003077130764722824,-0.0034814560785889626,0.0329972542822361
1758447392947062000,9.30106201171875,-0.004474491346627474,0.01889921724796295,0.014632896520197392
1758447392957034000,9.311033935546876,-0.005592904984951019,0.038014091551303864,-0.0020224389154464006
1758447392967007200,9.32100732421875,-0.000019707484170794487,0.04881933331489563,-0.009199658408761024
1758447392976979000,9.33097900390625,0.004284113645553589,0.05001930892467499,-0.010021595284342766
1758447392986951200,9.340951171875,0.0043237945064902306,0.04426954314112663,-0.01131296344101429
1758447392996924200,9.350924072265625,0.002365723717957735,0.04770287871360779,-0.014365527778863907
1758447393006896000,9.360896240234375,-0.0013272820506244898,0.062314581125974655,-0.015153024345636368
1758447393016868000,9.3708681640625,-0.004395394120365381,0.08811208605766296,-0.00809720903635025
1758447393026840000,9.380840087890626,-0.004012431483715773,0.1054370105266571,0.0129015501588583
1758447393036813000,9.39081298828125,-0.006450366228818893,0.10136336088180542,0.03968076780438423
1758447393046785000,9.400784912109375,-0.00937957689166069,0.07232557982206345,0.0589790940284729
1758447393056757000,9.410757080078126,-0.007810099981725216,0.034907467663288116,0.05518270656466484
1758447393066730000,9.42072998046875,-0.001137816347181797,0.0005311176646500826,0.033668093383312225
1758447393076702200,9.4307021484375,0.00527823343873024,-0.016600126400589943,0.006741819903254509
1758447393086674000,9.440673828125,0.00843727495521307,-0.022884653881192207,-0.011370338499546051
1758447393096646100,9.450646240234375,0.010901269502937794,-0.023368598893284798,-0.0170307457447052
1758447393106619100,9.460619140625,0.009516159072518349,-0.024497512727975845,-0.009407181292772293
1758447393116591000,9.470591064453124,0.006118878722190857,-0.022201301530003548,-0.007484836969524622
1758447393126563000,9.48056298828125,0.000009853625670075417,-0.007064958103001118,-0.00884544663131237
1758447393136536000,9.4905361328125,-0.005785451270639896,0.016229435801506042,-0.01867518573999405
1758447393146508000,9.500508056640625,-0.011211642064154148,0.04183998703956604,-0.02385636605322361
1758447393156480000,9.51047998046875,-0.012256895191967487,0.05341057479381561,-0.021361643448472023
1758447393166452200,9.5204521484375,-0.011286439374089241,0.040915023535490036,-0.012705037370324135
1758447393176425000,9.530425048828125,-0.008745212107896805,0.009400144219398499,-0.0021210075356066227
1758447393186397200,9.540397216796874,-0.0059094782918691635,-0.02423131838440895,-0.0008056722581386566
1758447393196369200,9.550369140625,0.00014662579633295536,-0.04790777713060379,-0.006679049693048
1758447393206342000,9.560341796875,0.0071374233812093735,-0.061892833560705185,-0.012642400339245796
1758447393216314000,9.570314208984374,0.011558346450328827,-0.07479038089513779,-0.013526047579944134
1758447393226286000,9.5802861328125,0.015132042579352856,-0.08839460462331772,-0.008820507675409317
1758447393236258000,9.590258056640625,0.011808836832642555,-0.09429197013378143,-0.004439171403646469
1758447393246231000,9.60023095703125,0.005137884058058262,-0.0848822221159935,-0.0032399501651525497
1758447393256203300,9.610203369140624,-0.0012533599510788918,-0.058477647602558136,-0.0030434303916990757
1758447393266175000,9.620175048828125,-0.008896365761756897,-0.02324242703616619,-0.0035957698710262775
1758447393276148000,9.63014794921875,-0.013989281840622425,0.009544839151203632,0.0006027682684361935
1758447393286120200,9.6401201171875,-0.013733883388340473,0.025876939296722412,0.007648427505046129
1758447393296092200,9.650092041015625,-0.011416400782763958,0.02168034203350544,0.013514315709471703
1758447393306064100,9.660064208984375,-0.006849346682429314,0.005033988505601883,0.015393441542983055
1758447393316037000,9.670037109375,-0.0022717530373483896,-0.014484632760286331,0.013997063040733337
1758447393326009000,9.680009033203126,0.004167237784713507,-0.02970886044204235,0.004012339282780886
1758447393335981000,9.68998095703125,0.005774341989308596,-0.03904116898775101,-0.00464249961078167
1758447393345954300,9.699954345703125,0.009894784539937973,-0.04392993450164795,-0.008306476287543774
1758447393355926000,9.709926025390626,0.010693162679672241,-0.04381401091814041,-0.0057294536381959915
1758447393365898200,9.719898193359375,0.010093418881297112,-0.03656648471951485,-0.0009003437589854002
1758447393375870000,9.729869873046875,0.009502881206572056,-0.027015581727027893,-0.0009038373827934265
1758447393385843000,9.739843017578124,0.005582707934081554,-0.015044674277305603,-0.005176879465579987
1758447393395815200,9.749815185546876,0.0014656130224466324,-0.0016000083414837718,-0.012196247465908527
1758447393405787000,9.759786865234375,-0.0029046342242509127,0.012111010029911995,-0.019009944051504135
1758447393415760100,9.769760009765625,-0.007334460038691759,0.020156264305114746,-0.023457732051610947
1758447393425732000,9.779732177734376,-0.009753143414855003,0.024424511939287186,-0.025558166205883026
1758447393435704000,9.7897041015625,-0.009766913950443268,0.02109110727906227,-0.024034913629293442
1758447393445676000,9.799676025390625,-0.007655294146388769,0.012092819437384605,-0.02167242392897606
1758447393455649000,9.80964892578125,-0.006129227112978697,-0.000299768871627748,-0.017783934250473976
1758447393465621000,9.81962109375,-0.002696945331990719,-0.023540109395980835,-0.01004611887037754
1758447393475593200,9.82959326171875,-0.0017966823652386665,-0.05173182114958763,-0.009198945015668869
1758447393485566200,9.839566162109374,0.0002915023360401392,-0.074833944439888,-0.007815433666110039
1758447393495538000,9.849537841796876,0.00045372615568339825,-0.08211613446474075,-0.010746890679001808
1758447393505510100,9.85951025390625,-0.0029985294677317142,-0.06665701419115067,-0.013562916778028011
1758447393515482000,9.869482177734374,-0.00585594866424799,-0.03603044152259827,-0.01421600952744484
1758447393525455000,9.879455078125,-0.010844582691788673,-0.00010013824794441462,-0.013267124071717262
1758447393535427000,9.889427001953125,-0.015091868117451668,0.03149711713194847,-0.007421158254146576
1758447393545399300,9.8993994140625,-0.016595222055912018,0.054811492562294006,-0.002206955337896943
1758447393555372000,9.9093720703125,-0.01781202107667923,0.06062408164143562,-0.0012929763179272413
1758447393565344000,9.919343994140625,-0.018564630299806595,0.05363089218735695,-0.008797232061624527
1758447393575316200,9.929316162109375,-0.013558723963797092,0.044661715626716614,-0.019176211208105087
1758447393585288000,9.939287841796874,-0.006190823391079903,0.04330084100365639,-0.026204291731119156
1758447393595261200,9.94926123046875,-0.00048743467777967453,0.04836038500070572,-0.020293788984417915
1758447393605233200,9.959233154296875,0.0013706525787711143,0.04672733321785927,-0.004939334467053413
1758447393615205000,9.969205078125,0.0040823970921337605,0.03438948094844818,0.012809909880161285
1758447393625178000,9.97917822265625,0.0051687005907297134,0.01632898673415184,0.01752716675400734
1758447393635150000,9.989150146484375,0.006141478195786476,0.011706926859915257,0.009410394355654716
1758447393645122000,9.9991220703125,0.007805953733623028,0.017008747905492783,-0.002658252138644457
1758447393655094300,10.00909423828125,0.006070904433727264,0.026527419686317444,-0.012797705829143524
1758447393665067300,10.0190673828125,-0.0014863479882478714,0.03228544071316719,-0.014266438782215118
1758447393675039000,10.0290390625,-0.005432658828794956,0.030810410156846046,-0.005428833421319723
1758447393685011200,10.03901123046875,-0.012995770201086998,0.023924807086586952,0.001709237229079008
1758447393694984200,10.048984130859376,-0.015263108536601067,0.01650376245379448,0.00752288568764925
1758447393704956200,10.0589560546875,-0.016619456931948662,0.013566562905907631,0.00953969731926918
1758447393714928000,10.06892822265625,-0.012705942615866661,0.014202513732016087,0.0017648539505898952
1758447393724900000,10.078900146484376,-0.00932452641427517,0.016500821337103844,-0.009891536086797714
1758447393734873000,10.088873046875,-0.0050051454454660416,0.013521821238100529,-0.02001260221004486
1758447393744845000,10.098844970703125,-0.0056195370852947235,-0.00046510063111782074,-0.02517886832356453
1758447393754817000,10.108817138671874,-0.004272546619176865,-0.018494663760066032,-0.027163876220583916
1758447393764790000,10.1187900390625,-0.005766313523054123,-0.028540106490254402,-0.028527414426207542
1758447393774762000,10.128761962890625,-0.006172903813421726,-0.02651728130877018,-0.029430221766233444
1758447393784734000,10.13873388671875,-0.0068235136568546295,-0.012759122997522354,-0.030140221118927002
1758447393794706200,10.1487060546875,-0.006143531762063503,0.0014563954900950193,-0.03280050680041313
1758447393804679000,10.158678955078125,-0.005488394759595394,0.008471960201859474,-0.03454833850264549
1758447393814651100,10.168651123046875,-0.0042664604261517525,-0.0009304748382419348,-0.032442606985569
1758447393824623000,10.178623046875,-0.0031242307741194963,-0.018647419288754463,-0.026638247072696686
1758447393834595800,10.188595947265625,-0.0029752079863101244,-0.03352254256606102,-0.022320806980133057
1758447393844568000,10.198568115234375,-0.005776586942374706,-0.035239484161138535,-0.014174463227391243
1758447393854540000,10.2085400390625,-0.006504390388727188,-0.026257235556840897,-0.00839847233146429
1758447393864512000,10.218511962890625,-0.0061219604685902596,-0.016318051144480705,-0.0008774390444159508
1758447393874485000,10.228485107421875,-0.00480023305863142,-0.012075947597622871,0.009392996318638325
1758447393884457200,10.238457275390624,-0.0013961808290332556,-0.011538522318005562,0.017053313553333282
1758447393894429000,10.248428955078126,0.0032861502841115,-0.025069404393434525,0.014997802674770355
1758447393904402000,10.25840185546875,0.008322454057633877,-0.04617948457598686,0.0068969991989433765
1758447393914374100,10.2683740234375,0.008718086406588554,-0.06160429120063782,-0.002887805225327611
1758447393924345900,10.278345947265626,0.0057001919485628605,-0.059177618473768234,-0.015076028183102608
1758447393934318000,10.288318115234375,0.001875740010291338,-0.038735948503017426,-0.023444661870598793
1758447393944291000,10.298291015625,-0.0054037440568208694,-0.011570107191801071,-0.023288067430257797
1758447393954263000,10.308262939453124,-0.01120559312403202,0.009968788363039494,-0.013716581277549267
1758447393964235000,10.318235107421875,-0.015497012063860893,0.015660231932997704,-0.006253072060644627
1758447393974208000,10.3282080078125,-0.01801449805498123,0.013184555806219578,-0.00294888811185956
1758447393984180000,10.338179931640624,-0.01799319125711918,0.010089962743222713,-0.0084706861525774
1758447393994152200,10.348152099609376,-0.019345887005329132,0.01817331276834011,-0.01873849332332611
1758447394004124000,10.3581240234375,-0.015430240891873837,0.035463351756334305,-0.024255232885479927
1758447394014097000,10.368096923828125,-0.01359699759632349,0.04812311381101608,-0.022040236741304398
1758447394024069000,10.378069091796876,-0.011055010370910168,0.04331371188163757,-0.01285606063902378
1758447394034040800,10.388040771484375,-0.004924337845295668,0.02099815011024475,-0.0038181112613528967
1758447394044014000,10.39801416015625,0.0022867037914693356,-0.008749092929065228,0.00012416625395417213
1758447394053986000,10.407986083984374,0.007498966529965401,-0.03537415340542793,0.001151123084127903
1758447394063958000,10.4179580078125,0.011930466629564762,-0.04751257598400116,-0.00010988395661115646
1758447394073930000,10.427929931640625,0.011464071460068226,-0.05352501943707466,-0.0034528905525803566
1758447394083903000,10.437903076171875,0.008715689182281494,-0.0537513867020607,-0.00137482606805861
1758447394093875000,10.447875,0.004820093046873808,-0.051214903593063354,-0.0016353426035493612
1758447394103847000,10.457846923828125,0.001597934402525425,-0.04503317177295685,-0.005394128151237965
1758447394113820200,10.467820068359375,-0.0014382980298250914,-0.032245803624391556,-0.0047969208098948
1758447394123792000,10.4777919921875,-0.008584890514612198,-0.019222144037485123,-0.0010338742285966873
1758447394133764000,10.48776416015625,-0.014797207899391651,-0.007664887234568596,-0.001144537003710866
1758447394143735800,10.49773583984375,-0.016953304409980774,0.0044682081788778305,-0.007250366732478142
1758447394153709000,10.507708984375,-0.00981831457465887,0.016539810225367546,-0.0083629684522748
1758447394163681000,10.517680908203126,-0.003686918644234538,0.019853580743074417,-0.0023157286923378706
1758447394173653000,10.527653076171875,-0.0002395319752395153,0.00014399178326129913,0.01078522764146328
1758447394183626000,10.5376259765625,0.003730442374944687,-0.03536153584718704,0.018227431923151016
1758447394193598000,10.547597900390626,0.004701620899140835,-0.06465749442577362,0.013560276478528976
1758447394203570000,10.55756982421875,0.0016413824632763863,-0.0748629942536354,-0.0009941654279828072
1758447394213543000,10.56754296875,0.0002371366135776043,-0.05595593526959419,-0.015927981585264206
1758447394223515100,10.57751513671875,-0.0024254920426756144,-0.020064247772097588,-0.025295386090874672
1758447394233486800,10.58748681640625,-0.005873639136552811,0.012073464691638947,-0.019980713725090027
1758447394243459000,10.597458984375,-0.006341557018458843,0.025071822106838226,-0.0058667599223554134
1758447394253432000,10.60743212890625,-0.006113134324550629,0.014953522942960262,0.0061933789402246475
1758447394263403800,10.61740380859375,-0.0034236079081892967,-0.002185250399634242,0.009715142659842968
1758447394273376000,10.6273759765625,-0.0030164860654622316,-0.01969054341316223,0.0015816488303244114
1758447394283349000,10.637348876953125,-0.0020130069460719824,-0.023852795362472534,-0.00999191589653492
1758447394293321000,10.647321044921876,0.002180329989641905,-0.021330371499061584,-0.020234132185578346
1758447394303293000,10.65729296875,0.0051289820112288,-0.010064134374260902,-0.021987291052937508
1758447394313266000,10.667265869140625,0.007695851847529411,-0.0019494259031489491,-0.021653778851032257
1758447394323238000,10.67723779296875,0.00937657244503498,0.00038403598591685295,-0.021114489063620567
1758447394333210000,10.687210205078125,0.009824782609939575,0.0037609341088682413,-0.023873787373304367
1758447394343183000,10.69718310546875,0.008025018498301506,0.004653093405067921,-0.02786719612777233
1758447394353154800,10.70715478515625,0.008498985320329666,0.003632183652371168,-0.027429867535829544
1758447394363127000,10.717126953125,0.004598786123096943,-0.0009194251615554094,-0.02230195328593254
1758447394373099000,10.72709912109375,0.000954401446506381,-0.009983816184103489,-0.01317485049366951
1758447394383072000,10.737072021484375,-0.006696061231195927,-0.02164526656270027,-0.0010063350200653076
1758447394393044000,10.7470439453125,-0.012121225707232952,-0.029916448518633842,0.0072200484573841095
1758447394403016200,10.75701611328125,-0.01742997206747532,-0.029700201004743576,0.012779130600392818
1758447394412989000,10.766989013671875,-0.019528882578015327,-0.020191747695207596,0.012487294152379036
1758447394422961000,10.7769609375,-0.021071119233965874,-0.004114512354135513,0.012867860496044159
1758447394432933000,10.78693310546875,-0.02027198113501072,0.007565448991954327,0.010888628661632538
1758447394442905900,10.79690576171875,-0.018496451899409294,0.010491197928786278,0.0041966368444263935
1758447394452878000,10.806878173828125,-0.0130305802449584,0.002613064832985401,-0.0064354874193668365
1758447394462850000,10.81685009765625,-0.0071734897792339325,-0.008851311169564724,-0.012900310568511486
1758447394472822800,10.82682275390625,-0.002100282581523061,-0.014247197657823563,-0.019978277385234833
1758447394482795000,10.836794921875,0.0011144191958010197,-0.013406705111265182,-0.022758882492780685
1758447394492767000,10.84676708984375,0.004173819907009602,-0.006612928118556738,-0.02022155188024044
1758447394502739000,10.856739013671875,0.0013913491275161505,0.00334756076335907,-0.012736737728118896
1758447394512712000,10.8667119140625,0.0000635739415884018,0.008329411037266254,-0.0066596935503184795
1758447394522684200,10.87668408203125,-0.0016658829990774393,0.00571498554199934,0.0015471037477254868
1758447394532655900,10.88665576171875,-0.0044789789244532585,-0.0029069886077195406,0.005881135817617178
1758447394542629000,10.896629150390625,-0.004806548357009888,-0.011973720043897629,0.009179461747407913
1758447394552601000,10.90660107421875,-0.00459307711571455,-0.01926097273826599,0.007655254099518061
1758447394562573000,10.916572998046876,-0.006635721772909164,-0.017922736704349518,0.0050424267537891865
1758447394572546000,10.926546142578125,-0.007573915645480156,-0.008969537913799286,0.0017125210724771023
1758447394582518000,10.93651806640625,-0.006388010457158089,-0.0019060361664742231,-0.001831347355619073
1758447394592490000,10.946489990234374,-0.007498700171709061,0.0007720747962594032,-0.010990149341523647
1758447394602463000,10.956462890625,-0.005010508932173252,0.0030964817851781845,-0.024591179564595222
1758447394612435200,10.966435302734375,-0.006413386203348637,0.008523335680365562,-0.03860263526439667
1758447394622407000,10.976406982421874,-0.008188649080693722,0.01753920130431652,-0.042249035090208054
1758447394632380000,10.9863798828125,-0.0066702296026051044,0.02579839527606964,-0.04269520193338394
1758447394642352000,10.99635205078125,-0.008954156190156937,0.03109355829656124,-0.03220634162425995
1758447394652323800,11.00632373046875,-0.008566019125282764,0.030143674463033676,-0.023976553231477737
1758447394662297000,11.016297119140624,-0.008640587329864502,0.024616019800305367,-0.01658974215388298
1758447394672269000,11.02626904296875,-0.005481812171638012,0.020649496465921402,-0.01401420496404171
1758447394682241000,11.036240966796875,-0.0034207915887236595,0.019358929246664047,-0.005353870801627636
1758447394692213000,11.046212890625,0.0020453077740967274,0.014491010457277298,0.006814529653638601
1758447394702186000,11.05618603515625,0.005930327344685793,-0.0076089659705758095,0.01782350428402424
1758447394712158000,11.066157958984375,0.011759835295379162,-0.03581259399652481,0.01958926022052765
1758447394722130200,11.076130126953124,0.012651195749640465,-0.04827698692679405,0.014306614175438881
1758447394732103200,11.086103271484374,0.011618382297456264,-0.0380069762468338,0.003909779712557793
1758447394742075000,11.096074951171875,0.009052161127328873,-0.014133600518107414,0.0011789738200604916
1758447394752047000,11.106047119140625,0.001417828956618905,-0.0005914734210819006,0.0057693845592439175
1758447394762019600,11.11601953125,-0.0063255783170461655,0.0013126868288964033,0.006616269703954458
1758447394771991800,11.12599169921875,-0.010975456796586514,-0.0005102371796965599,0.0048082550056278706
1758447394781963500,11.135963623046875,-0.010160263627767563,0.0013084355741739273,0.0038753491826355457
1758447394791936500,11.1459365234375,-0.006601596251130104,0.004240252077579498,0.004771415609866381
1758447394801908700,11.15590869140625,-0.004135242663323879,0.0010963906534016132,0.0067208497785031796
1758447394811880700,11.165880615234375,-0.002964820945635438,-0.003583221696317196,0.0075417980551719666
1758447394821852700,11.175852783203124,0.00010820059105753899,-0.0039688474498689175,0.006139910779893398
1758447394831825700,11.18582568359375,0.0023906819988042116,-0.0016780332662165165,-0.0014555000234395266
1758447394841797600,11.195797607421875,0.004544646479189396,-0.0038439822383224964,-0.009724348783493042
1758447394851769600,11.20576953125,0.005489536095410585,-0.009561789222061634,-0.01802568882703781
1758447394861742800,11.215742919921874,0.004864492453634739,-0.01190883293747902,-0.025615962222218513
1758447394871714600,11.225714599609375,0.002482789568603039,-0.00893666222691536,-0.025183044373989105
1758447394881686800,11.235686767578125,-0.0007420324254781008,0.001421437133103609,-0.019936349242925644
1758447394891659800,11.24565966796875,-0.0027451482601463795,0.009170185774564743,-0.012581435032188892
1758447394901631500,11.255631591796876,-0.00336593110114336,0.005128040444105864,-0.006418880075216293
1758447394911603700,11.265603759765625,-0.006406690925359726,-0.00688527524471283,-0.002969698514789343
1758447394921576700,11.27557666015625,-0.003213293617591262,-0.015929635614156723,-0.005477064289152622
1758447394931548700,11.285548583984376,-0.001799269812181592,-0.018050890415906906,-0.007789035327732563
1758447394941520600,11.295520751953125,-0.0016589208971709013,-0.016173096373677254,-0.007759474217891693
1758447394951493600,11.30549365234375,0.00012665288522839546,-0.012716146185994148,-0.0037436475977301598
1758447394961465600,11.315465576171874,-0.0007881431374698877,-0.011556340381503105,0.0009499075822532177
1758447394971437600,11.3254375,0.0002762845251709223,-0.015252191573381424,0.005774645134806633
1758447394981409500,11.335409423828125,0.0010837551672011614,-0.023387083783745766,0.009196274913847446
1758447394991382500,11.345382568359375,-0.0008337588515132666,-0.03111204132437706,0.011401256546378136
1758447395001354800,11.355354736328126,-0.0018521517049521208,-0.03404657915234566,0.012824449688196182
1758447395011326500,11.365326416015625,-0.001434149919077754,-0.031986936926841736,0.010889315977692604
1758447395021299700,11.3752998046875,-0.0013047202955931425,-0.02683771587908268,0.007053832057863474
1758447395031271700,11.385271728515624,-0.003936075605452061,-0.015687821432948112,0.0016319775022566319
1758447395041243600,11.39524365234375,-0.0022830518428236246,-0.0014577528927475214,-0.004039490129798651
1758447395051216600,11.405216552734375,-0.001254120608791709,0.008657950907945633,-0.009015154093503952
1758447395061188600,11.415188720703124,-0.002066917484626174,0.007252867333590984,-0.013003770262002945
1758447395071160600,11.42516064453125,-0.003747029462829232,-0.002472610678523779,-0.016942886635661125
1758447395081133600,11.435133544921875,-0.006096470169723034,-0.012083958834409714,-0.02329426072537899
1758447395091105800,11.445105712890625,-0.009108847938477993,-0.006360945291817188,-0.0323665514588356
1758447395101077500,11.455077392578126,-0.013778701424598694,0.009014282375574112,-0.03342968225479126
1758447395111049700,11.4650498046875,-0.02005641721189022,0.02578631229698658,-0.02801208570599556
1758447395121022700,11.475022705078125,-0.024787789210677147,0.03611698001623154,-0.013048049062490463
1758447395130994400,11.484994384765624,-0.022542594000697136,0.0452054925262928,0.004860823042690754
1758447395140966700,11.494966552734375,-0.01625353842973709,0.03918728232383728,0.023611873388290405
1758447395150939600,11.504939697265625,-0.006300049368292093,0.014902603812515736,0.03279050067067146
1758447395160911600,11.51491162109375,0.005765135399997234,-0.02385810762643814,0.03482169285416603
1758447395170883600,11.524883544921876,0.014244336634874344,-0.06227197125554085,0.026876583695411682
1758447395180856800,11.53485693359375,0.022011712193489075,-0.08931557089090347,0.020576611161231995
1758447395190828500,11.54482861328125,0.028422700241208076,-0.10475892573595047,0.01962493546307087
1758447395200800800,11.55480078125,0.03414849564433098,-0.12014614045619965,0.02198502980172634
1758447395210772500,11.5647724609375,0.03764480724930763,-0.12596380710601807,0.030524244531989098
1758447395220745500,11.574745361328125,0.033686283975839615,-0.13040782511234283,0.039829060435295105
1758447395230717700,11.5847177734375,0.027507904917001724,-0.12293285131454468,0.04325117915868759
1758447395240689400,11.594689453125,0.02405484952032566,-0.10396181792020798,0.03820795193314552
1758447395250662700,11.60466259765625,0.023046880960464478,-0.0747891291975975,0.02777804806828499
1758447395260634600,11.614634521484374,0.024744912981987,-0.048258181661367416,0.015133891254663467
1758447395270606600,11.624606689453126,0.025915371254086494,-0.03007836826145649,-0.007954376749694347
1758447395280579600,11.63457958984375,0.027360936626791954,-0.011385375633835793,-0.041179440915584564
1758447395290551600,11.644551513671875,0.0355442576110363,0.006704199127852917,-0.07026661932468414
1758447395300523500,11.6545234375,0.038700636476278305,0.01145048439502716,-0.0680529996752739
1758447395310496500,11.66449658203125,0.03935790807008743,-0.004887486808001995,-0.031134402379393578
1758447395320468700,11.67446875,0.037508875131607056,-0.0408974215388298,0.029229871928691864
1758447395330440400,11.6844404296875,0.043664008378982544,-0.07616518437862396,0.08082662522792816
1758447395340412700,11.69441259765625,0.059125520288944244,-0.11050078272819519,0.11207215487957001
1758447395350385700,11.7043857421875,0.0789550393819809,-0.16261756420135498,0.12101443111896515
1758447395360357600,11.714357666015625,0.09959666430950165,-0.2265893518924713,0.1008865237236023
1758447395370329600,11.72432958984375,0.11659650504589081,-0.2815001308917999,0.04833513870835304
1758447395380302600,11.734302490234375,0.13275150954723358,-0.30043095350265503,-0.02875591814517975
1758447395390274600,11.744274658203125,0.13485729694366455,-0.2882497310638428,-0.10723914951086044
1758447395400246500,11.75424658203125,0.13199573755264282,-0.2579245865345001,-0.1559813916683197
1758447395410219800,11.7642197265625,0.12659618258476257,-0.21794602274894714,-0.17846061289310455
1758447395420191500,11.77419140625,0.08716247975826263,-0.18058668076992035,-0.1817416250705719
1758447395430163700,11.784163818359374,0.027047252282500267,-0.16279391944408417,-0.17525114119052887
1758447395440135700,11.7941357421875,-0.04657210409641266,-0.16303999722003937,-0.15903222560882568
1758447395450108400,11.8041083984375,-0.1676468551158905,-0.16151852905750275,-0.14321783185005188
1758447395460080600,11.81408056640625,-0.2522197961807251,-0.13531674444675446,-0.1215042844414711
1758447395470052600,11.824052490234376,-0.23385506868362427,-0.05162500962615013,-0.06968095898628235
1758447395480025600,11.834025634765625,-0.2034311145544052,0.03581029549241066,0.005110729485750198
1758447395489997600,11.84399755859375,-0.1929055005311966,0.09106422960758209,0.08814142644405365
1758447395499969800,11.8539697265625,-0.1878172755241394,0.11372613161802292,0.14938348531723022
1758447395509942500,11.863942626953126,-0.20523832738399506,0.08742930740118027,0.18276675045490265
1758447395519914800,11.873914794921875,-0.22884592413902283,0.034876614809036255,0.19978168606758118
1758447395529886700,11.88388671875,-0.23953497409820557,-0.021671505644917488,0.21174828708171844
1758447395539858700,11.893858642578126,-0.2328866571187973,-0.06621234863996506,0.2150801718235016
1758447395549831700,11.903831787109375,-0.21804076433181763,-0.07154902070760727,0.1933818757534027
1758447395559803600,11.9138037109375,-0.20863021910190582,0.0007699131965637207,0.13383306562900543
1758447395569775600,11.923775634765626,-0.1875506490468979,0.13479217886924744,0.040992408990859985
1758447395579748600,11.93374853515625,-0.16101011633872986,0.2551007568836212,-0.04975561052560806
1758447395589720800,11.943720947265625,-0.12946094572544098,0.33016350865364075,-0.11990686506032944
1758447395599692500,11.953692626953124,-0.10556599497795105,0.36701738834381104,-0.17507025599479675
1758447395609665500,11.96366552734375,-0.0716264396905899,0.3625657260417938,-0.18022598326206207
1758447395619637800,11.9736376953125,-0.027218762785196304,0.3176746666431427,-0.13782261312007904
1758447395629609500,11.983609375,0.011192770674824715,0.25877416133880615,-0.0896860808134079
1758447395639581700,11.993581787109376,0.04441916570067406,0.22494322061538696,-0.09209703654050827
1758447395649554700,12.0035546875,0.06503595411777496,0.2347019612789154,-0.14222490787506104
1758447395659526700,12.013526611328125,0.07900077104568481,0.26720130443573,-0.21008384227752686
1758447395669498600,12.02349853515625,0.09474849700927734,0.2624908983707428,-0.27536532282829285
