time,seconds_elapsed,z,y,x
1758447617775166500,0.01416650390625,-0.00007423427999019622,-0.13676526270508765,-0.361975774647668
1758447617785138400,0.024138427734375,-0.5226075775653124,0.016585224097967147,-0.4154201453916728
1758447617795111400,0.034111328125,-0.9532195930004119,0.2523053665518761,-0.35346309010721744
1758447617805084400,0.04408447265625,-1.133390282189846,0.4973828276768327,-0.11786956970766187
1758447617815057400,0.054057373046875,-0.9982336237251758,0.6341068815886974,0.15127090405002236
1758447617825030400,0.064030517578125,-0.7037620170950889,0.6423670526728034,0.347051031107828
1758447617835002400,0.07400244140625,-0.22506255483925341,0.5696355784609913,0.4805667539650574
1758447617844975400,0.083975341796875,0.21558394787609575,0.42837183529287576,0.5762758567256853
1758447617854948600,0.093948486328125,0.6249363176614046,0.2675681098744273,0.653194151635468
1758447617864921300,0.10392138671875,0.9112164345294237,0.12260317410081624,0.6559128360096365
1758447617874893300,0.113893310546875,1.0983540401220322,0.07916384534686803,0.664842796114087
1758447617884866600,0.123866455078125,1.0706249061971902,0.08811082965135573,0.6406750809978693
1758447617894839600,0.133839599609375,0.7919231156289577,0.06075023677796125,0.5650165768908336
1758447617904812300,0.143812255859375,0.2934954550743103,-0.006152385149896145,0.3952153425570577
1758447617914785300,0.153785400390625,-0.1915712041258812,0.04965922618210315,0.25570311923138794
1758447617924757500,0.163757568359375,-0.4471241742968559,0.09273995075672864,0.17406400634478778
1758447617934730500,0.17373046875,-0.35521219879686833,0.09713906249850988,0.09394784697545691
1758447617944703200,0.183703125,-0.1227028350830078,0.070666942897439,0.04271147113712504
1758447617954676500,0.193676513671875,-0.03285480637550354,-0.0009790741652250289,-0.012437328904587775
1758447617964649500,0.2036494140625,-0.1317395434975624,-0.0559641715452075,-0.026379290218465027
1758447617974621400,0.213621337890625,-0.22773089726567267,-0.10060235469490289,0.0035016879780218
1758447617984594400,0.223594482421875,-0.30412907729148864,-0.11901391743719578,0.06943783036074601
1758447617994567400,0.2335673828125,-0.2970464255541563,-0.04277268153876066,0.09087290564267896
1758447618004540400,0.24354052734375,-0.24354338342547416,-0.008266016303002834,0.06365752535967621
1758447618014512600,0.2535126953125,-0.3745832542210817,-0.027987200339138506,0.022426661868859082
1758447618024485400,0.2634853515625,-0.5207756859630346,0.015527823999524116,-0.08759561927136965
1758447618034458400,0.273458251953125,-0.5160568407475948,0.07363368374854326,-0.16952457281686364
1758447618044431400,0.283431396484375,-0.3818120364308357,0.0839648158878088,-0.18894830827638506
1758447618054404600,0.293404541015625,-0.19664836125969887,0.04314122259020805,-0.13594444784149526
1758447618064376300,0.303376220703125,-0.06431728160977364,-0.008660860839486122,-0.09251180455666035
1758447618074349300,0.313349365234375,-0.0050970308780670165,-0.02237199080586433,-0.08117584275640546
1758447618084322600,0.323322509765625,0.09329086263775825,-0.0374728215649724,-0.0850456699270755
1758447618094295600,0.333295654296875,0.22270868518948553,-0.0707607586607337,-0.13273554139812477
1758447618104267300,0.343267333984375,0.33987668249905106,-0.130930857463181,-0.22328060332592575
1758447618114240500,0.353240478515625,0.4650269107341766,-0.17404840691685675,-0.28846929747536776
1758447618124213500,0.363213623046875,0.4738198735207319,-0.3009051468089223,-0.30672983437441287
1758447618134186500,0.3731865234375,0.3806494223922491,-0.31810411889106033,-0.35281467266846445
1758447618144159500,0.383159423828125,0.26890169656574725,-0.16898615509122608,-0.326556524611637
1758447618154131500,0.39313134765625,0.2213853276312351,0.0057578328743577,-0.23369484717138111
1758447618164104400,0.4031044921875,0.2171726783722639,0.12519202155023812,-0.0930048579037655
1758447618174077400,0.413077392578125,0.20670564489364623,0.16919103001356123,-0.007884369174810125
1758447618184050400,0.423050537109375,0.22496435516178606,0.14111848947852848,-0.04380621670442633
1758447618194023400,0.4330234375,0.22591478775441645,0.10080284570306539,-0.06625738282687961
1758447618203995400,0.442995361328125,0.14668985987007618,0.10111293456554413,-0.028569347608648238
1758447618213968600,0.45296875,-0.00040039749443531033,0.14538725283890963,0.020879359361622482
1758447618223941600,0.462941650390625,-0.04022212027311325,0.24499738162606954,0.037037663284409786
1758447618233914400,0.472914306640625,0.0075707275152206415,0.21097090112268924,0.022080350915528832
1758447618243886600,0.482886474609375,0.14201134666502474,0.23547815039157866,0.0689255243238993
1758447618253859600,0.492859619140625,0.26441490654051303,0.31194588852226734,0.0828557586673647
1758447618263832600,0.50283251953125,0.2056272020071745,0.3259770442232489,0.1154054628827609
1758447618273805300,0.512805419921875,0.08650748610794544,0.33123072696775196,0.1725241382253356
1758447618283777500,0.522777587890625,0.022146949878334998,0.32452684541493654,0.25845634519597516
1758447618293750500,0.53275048828125,0.05466565616726875,0.3216422298893332,0.2948184473063797
1758447618303723500,0.5427236328125,0.19766835195720195,0.29159692797660824,0.3280566269762814
1758447618313696500,0.552696533203125,0.3919681042641401,0.19999153420776128,0.2826611226532608
1758447618323669500,0.56266943359375,0.5234603950023651,0.016747136661410332,0.17824310039402916
1758447618333641500,0.572641357421875,0.595554155832529,-0.0982625135704875,0.10366572432089596
1758447618343614500,0.582614501953125,0.58536944642663,-0.14329057282060384,0.08166437519202008
1758447618353587500,0.59258740234375,0.5149924263864756,-0.09238982214480639,0.11726458955183625
1758447618363560400,0.602560546875,0.4685036469340324,0.016793606151640415,0.15823234056048094
1758447618373533400,0.612533447265625,0.4022439990848303,0.05929360822886228,0.15038751794476993
1758447618383505700,0.622505615234375,0.28916180978417394,0.05354454318284988,0.1298832024406176
1758447618393478400,0.632478515625,0.1939057845532894,0.11342764173746109,0.09214174740156159
1758447618403451400,0.642451416015625,0.028396073400974272,0.18796645763218403,0.09672593338666483
1758447618413424400,0.65242431640625,-0.08978373129963874,0.23813918629437683,0.1433861786821857
1758447618423396600,0.662396728515625,-0.1753752716064453,0.29726825161129233,0.19742528218263758
1758447618433369300,0.672369384765625,-0.25332418820559977,0.3208355896815657,0.1828895927593112
1758447618443342300,0.68234228515625,-0.2743359965741634,0.30364860029816626,0.12301694253347813
1758447618453315600,0.692315673828125,-0.20298808567523954,0.2509872696906328,0.10295602341527119
1758447618463288600,0.70228857421875,-0.12023030748963355,0.17676146526783704,0.07370541554419323
1758447618473260300,0.71226025390625,-0.08169803999960422,0.13737871842831373,0.045462139818444845
1758447618483233500,0.722233642578125,-0.07600888844728469,0.05866700076311827,0.014024963422212749
1758447618493206500,0.73220654296875,-0.22861060270965097,-0.038537820447981354,-0.01304886666536331
1758447618503179500,0.742179443359375,-0.4012555725693702,0.002265606844425201,-0.009416574577614665
1758447618513151500,0.7521513671875,-0.5268991372793913,0.02832213138192892,-0.07813992739291861
1758447618523124500,0.76212451171875,-0.618191519576311,0.040921500714123246,-0.11484127139504999
1758447618533097500,0.772097412109375,-0.5853618476420641,0.14459025724232197,-0.036623858319129794
1758447618543070500,0.782070556640625,-0.35514497877955437,0.1931739631474018,0.012207995394431053
1758447618553043500,0.79204345703125,-0.11582008983194828,0.15732494339197872,0.056233252543862904
1758447618563015400,0.802015380859375,0.0008224222987890243,0.11512860043644904,-0.003122716864105314
1758447618572988400,0.811988525390625,0.04771101472377777,0.06580138268768787,-0.09885719152800738
1758447618582961700,0.821961669921875,0.06979892789125441,-0.02411971125602722,-0.1856449741483666
1758447618592934400,0.831934326171875,0.1102595330953598,-0.06874445040225982,-0.2567294483381323
1758447618602906400,0.84190625,0.2006330469816923,-0.06298661752790212,-0.31118363544549793
1758447618612879600,0.851879638671875,0.2937374471366405,-0.06123831255584955,-0.3305533756954595
1758447618622852600,0.8618525390625,0.3436737366944551,-0.08743132295459509,-0.31223639590144153
1758447618632825300,0.871825439453125,0.3645668871194124,-0.07499006679356097,-0.23082592240525407
1758447618642797600,0.881797607421875,0.3566267417699098,-0.07348463066667318,-0.16945618375577032
1758447618652770600,0.8917705078125,0.300443082255125,-0.005374971036612987,-0.12752081155767664
1758447618662743600,0.90174365234375,0.2854600326567888,0.06974515187740325,-0.11576123578418046
1758447618672716300,0.91171630859375,0.3144774528264999,0.12006167292445898,-0.08015007990524173
1758447618682689500,0.921689453125,0.3530471297174692,0.1759881428077817,-0.05324826365001499
1758447618692661500,0.93166162109375,0.38776714544296265,0.1589779712960124,-0.07265502970842644
1758447618702634500,0.941634521484375,0.3222854962289333,0.13257277945131063,-0.11224676138982176
1758447618712607500,0.951607421875,0.1519821210592985,0.06713613842278719,-0.13228139528930186
1758447618722580500,0.96158056640625,0.030370003822445868,0.053795887595415114,-0.10118532394832
1758447618732552400,0.971552490234375,0.05445055211186409,0.048509763886034486,-0.13464156681569292
1758447618742525700,0.981525634765625,0.12462708114385604,0.03006839052736759,-0.08425064709186554
1758447618752498400,0.99149853515625,0.16433832928538322,0.0635474662810564,0.012439155535493046
1758447618762471400,1.001471435546875,0.16858078916072844,0.12542641482800246,0.07189427446899935
1758447618772444400,1.0114443359375,0.19457915377020835,0.1455976807191968,0.08645517139881849
1758447618782416600,1.021416748046875,0.1766612197637558,0.12802782949805258,0.08725560106150805
1758447618792389400,1.031389404296875,0.1794920592755079,0.06786883661150932,0.0940662674570456
1758447618802362400,1.0413623046875,0.16083002890348433,0.010738251635432242,0.0552766094061546
1758447618812335600,1.051335693359375,0.14884382303357124,-0.0438712904304266,0.005957848958484828
1758447618822307600,1.0613076171875,0.1541658948391676,-0.07489186711609364,-0.030743988233990965
1758447618832280300,1.0712802734375,0.08457388769686222,-0.09575403788089752,-0.05837176240989938
1758447618842253600,1.081253662109375,-0.0019259996265172958,-0.10108224716633557,-0.09541848578359931
1758447618852226600,1.0912265625,-0.08840484416186808,-0.06384674148857593,-0.08341187644647434
1758447618862199600,1.101199462890625,-0.16442717661261558,-0.011242986287176609,-0.009740564101282507
1758447618872171500,1.111171630859375,-0.10499474443495273,0.029479484723508358,0.09354925784561782
1758447618882144500,1.12114453125,-0.06793138045370578,0.06223609142154455,0.14820857560364528
1758447618892117500,1.131117431640625,-0.01915828945636749,0.060013739196956156,0.17030816094260662
1758447618902090500,1.141090576171875,0.08495265788137912,0.04447480928152799,0.22236962596084922
1758447618912062500,1.1510625,0.12955986137092113,0.002708382175862789,0.2055322172001004
1758447618922035500,1.161035400390625,0.06933890916407108,-0.0241620890930295,0.15088575892364606
1758447618932008400,1.171008544921875,-0.0005202244818210602,-0.03223433638960123,0.07857612685309723
1758447618941981400,1.1809814453125,-0.11173486634492874,-0.04716682484447956,0.05166678487854078
1758447618951954400,1.190954345703125,-0.17073650588989256,-0.012269991247355937,0.08585181694449856
1758447618961926400,1.200926513671875,-0.1602694724112749,0.03987696009725332,0.1066346023301594
1758447618971899400,1.2108994140625,-0.06324409942030906,0.06638678136020898,0.17226302133742719
1758447618981872600,1.22087255859375,0.1255307519853115,0.061005965104699134,0.24497403728310016
1758447618991845400,1.230845458984375,0.21943243999779224,0.036188919234275814,0.22755597909018396
1758447619001817300,1.2408173828125,0.16933073074519633,-0.0001613280415534973,0.1924378856915049
1758447619011790600,1.25079052734375,0.050880876931548115,-0.021238602861762046,0.16929708420392126
1758447619021763600,1.260763671875,-0.0035328503012657165,0.016748597966134548,0.15237000613203272
1758447619031736300,1.270736328125,0.04719312832951546,0.053961015029251574,0.1366277173979208
1758447619041709000,1.280708984375,0.15195055687725542,0.07825812867879867,0.21628647012226282
1758447619051680800,1.2906806640625,0.2120832462787628,0.1441483586937189,0.2548661386842839
1758447619061653800,1.30065380859375,0.21617314594089984,0.1776402939289808,0.25680119840009136
1758447619071627000,1.310626953125,0.1871568948149681,0.12753829241544007,0.23213311427999286
1758447619081600000,1.32060009765625,0.10407295341491699,0.06659779376238584,0.23661625104341655
1758447619091571700,1.33057177734375,-0.07111644023060798,0.03709171329289675,0.05835557846007868
1758447619101545000,1.340544921875,-0.1297182668030262,0.03971709336042404,0.012724968473240733
1758447619111518000,1.35051806640625,-0.08593640822172165,0.07102993099093437,-0.017374876638315617
1758447619121491000,1.360490966796875,-0.00924655177295208,0.06293225699216128,-0.050685518756229425
1758447619131463000,1.370462890625,0.046475919970870014,0.08994593612402677,0.05367069031316787
1758447619141436000,1.380435791015625,0.1277408292502165,0.10616992569416761,0.1061714783304371
1758447619151409000,1.390408935546875,0.18190964181125163,0.10035480967462063,0.11882648684000596
1758447619161382000,1.4003818359375,0.2879863362640142,0.1125704403862357,0.12876545959021896
1758447619171355000,1.41035498046875,0.3224953395873308,0.1450146201342344,0.11707282983940094
1758447619181326800,1.420326904296875,0.302545022970438,0.1316261462509632,0.09348044865941628
1758447619191299800,1.4302998046875,0.23746552481651304,0.08532645962983369,0.06940766355134546
1758447619201273000,1.440273193359375,0.18049276075065135,0.014374270050227641,0.09175243755672126
1758447619211245800,1.450245849609375,0.13913140731453894,-0.04949760587960481,0.07677265762770548
1758447619221217800,1.4602177734375,0.10859423023164272,-0.09499825107753276,-0.005930979217868298
1758447619231191000,1.47019091796875,0.1357487791389227,-0.06891250044554471,-0.027520039485115555
1758447619241163800,1.480163818359375,0.25265257255434986,-0.03729074299633503,0.04536744727231562
1758447619251136800,1.49013671875,0.30494565437138077,-0.0171209384098649,0.08728236120427027
1758447619261109800,1.50010986328125,0.25653730503320693,-0.025237609370052812,0.08664205400673672
1758447619271082000,1.51008203125,0.020316227319836615,-0.0314598448857665,0.06131722301095724
1758447619281054700,1.5200546875,-0.17395020723938942,-0.02034954506754875,0.004465528041496873
1758447619291027700,1.53002783203125,-0.2233107427358627,0.0072261518612504,-0.050276042906194925
1758447619301001000,1.5400009765625,-0.1683510720580816,-0.014292144724726676,-0.05570950266439467
1758447619310973000,1.549972900390625,-0.0803483789563179,-0.01044423712491989,-0.027289883991051464
1758447619320945700,1.559945556640625,0.03817395557165146,0.04058540062755346,0.0030502909487113354
1758447619330919000,1.5699189453125,0.0706406394124031,0.03136719816625118,0.06622253070920706
1758447619340892000,1.579891845703125,0.06460661994516849,0.04134644812792539,0.06869472950901835
1758447619350864000,1.58986376953125,0.10245675038993358,0.03807955528646707,0.03406283045839518
1758447619360836900,1.5998369140625,0.0872755478709936,0.0025768647506833075,-0.005462850249465555
1758447619370809900,1.609809814453125,0.09039631024003028,-0.024452011950314042,-0.06660004051839932
1758447619380782800,1.619782958984375,0.12331424497961997,-0.05292465771883726,-0.05587574434308335
1758447619390755800,1.629755859375,0.1877232965260744,-0.025625731904804706,-0.021516524753998963
1758447619400727800,1.639727783203125,0.21783143454194068,-0.031281273448467255,0.018402356522530316
1758447619410700800,1.64970068359375,0.2238917574942112,-0.01109130285680294,0.02412652458930388
1758447619420673800,1.659673828125,0.19949673642814159,0.00208615862429142,-0.02458497241390869
1758447619430646800,1.669646728515625,0.14856383704841136,0.0015896072790026663,-0.022942867762688546
1758447619440618800,1.67961865234375,0.148924487054348,0.010693535710871218,-0.03933737332783639
1758447619450591700,1.689591796875,0.19811258859336375,-0.016121113717556,-0.02326119473055005
1758447619460564700,1.699564697265625,0.216842423504591,0.003686579558253288,0.009542356381751596
1758447619470538000,1.7095380859375,0.1797802285671234,0.0757692344725132,0.07219301995355636
1758447619480511000,1.719510986328125,0.14860592262446878,0.1417503576412797,0.14438421327620743
1758447619490482700,1.729482666015625,0.17590777104794977,0.16344488757699727,0.14853086636057122
1758447619500456000,1.7394560546875,0.24008535192608832,0.09665507837384939,0.10901968910209833
1758447619510429000,1.749428955078125,0.2602233000695705,0.04098842847049236,0.09835950767155736
1758447619520402000,1.75940185546875,0.2381727963030338,0.032062194693088526,0.07278652886729688
1758447619530374000,1.769373779296875,0.21153321118056773,-0.004034077821671963,0.04287122827610001
1758447619540347000,1.779346923828125,0.23353929128348827,-0.038002982918918134,0.03611974472189322
1758447619550319900,1.78931982421875,0.16511574339866636,-0.04873860420584678,0.05248780067153275
1758447619560292900,1.79929296875,0.10272796854674815,0.01113748008608818,0.07813223727680742
1758447619570264800,1.809264892578125,0.05482639968693256,0.06202098736613988,0.0957991921968758
1758447619580237800,1.81923779296875,0.09889116686284541,0.08225508936047554,0.12698109692409634
1758447619590210800,1.8292109375,0.184659817302227,0.05151157605051994,0.16055475562606006
1758447619600184000,1.83918408203125,0.15134323863387106,0.021193302415311335,0.15342768022511152
1758447619610156800,1.84915673828125,0.08904255754351616,-0.0009282207608222961,0.09759933695401996
1758447619620128800,1.859128662109375,0.019142507365345954,-0.033897301165759564,0.0735665367964655
1758447619630102000,1.86910205078125,-0.0631201807796955,-0.04843436056226492,0.09072207159567623
1758447619640074800,1.87907470703125,-0.0754904175311327,-0.01994125652760267,0.12503964400012046
1758447619650047700,1.8890478515625,-0.10747779342234134,0.006366027900576591,0.16903762955013663
1758447619660020000,1.89902001953125,-0.1107166292130947,-0.025618425381183623,0.1777798850627616
1758447619669993000,1.908992919921875,-0.09968670115470886,-0.06515723956525325,0.13723043253142386
1758447619679965700,1.918965576171875,-0.08280044828355312,-0.11217355002313852,0.07577113416865468
1758447619689938700,1.928938720703125,-0.061005380582809444,-0.1215767536625266,0.03981156671084463
1758447619699911000,1.938910888671875,-0.02527297294437885,-0.09578384849727153,0.02979998538214713
1758447619709884000,1.9488837890625,0.04431085089147091,-0.05945610531419515,0.08400441724583506
1758447619719856600,1.958856689453125,0.11717910322546958,-0.055020168693363666,0.1467257349010557
1758447619729830000,1.968829833984375,0.1710842964142561,-0.05065495922118425,0.13858590226098894
1758447619739803000,1.978802978515625,0.17817922311127185,-0.05293634815663099,0.061439789944700895
1758447619749774800,1.98877490234375,0.12731880444586277,-0.055068976271152495,0.028891674898192284
1758447619759747800,1.998747802734375,0.10327274294793605,-0.0590574613854289,0.009165632023848593
1758447619769720800,2.008720947265625,0.09582242694199085,-0.0569464605808258,0.031019553772360084
1758447619779693800,2.01869384765625,0.020433716219663618,-0.04560030618011951,0.045484351650252934
1758447619789666000,2.028666015625,-0.0005430208355188369,-0.027330782257020472,0.049733022070676085
1758447619799638800,2.038638671875,0.08250818733870982,0.014731997446715831,0.07505721374563873
1758447619809611800,2.04861181640625,0.18139058637320996,0.03675006024837494,0.09713730893284082
1758447619819584800,2.058584716796875,0.1980447840541601,0.03626403029710054,0.13233615768384188
1758447619829557000,2.068556884765625,0.16714987957477567,0.06605974136292934,0.13701985852066426
1758447619839529700,2.07852978515625,0.056067924180626866,0.09330313759744167,0.11100293534118681
1758447619849502700,2.088502685546875,-0.08599661397635937,0.09902297654896974,0.09274886471554636
1758447619859476000,2.09847607421875,-0.15215104788541792,0.13380845872610805,0.11313194672651589
1758447619869449000,2.108448974609375,-0.10909224288165568,0.1786643762797117,0.10937495054686441
1758447619879420700,2.118420654296875,0.04138999500870704,0.19681582678109405,0.12485966605702414
1758447619889394000,2.128393798828125,0.1719692625552416,0.13217851943671702,0.12410734985237941
1758447619899367000,2.138366943359375,0.25758944443464277,0.037596155683696265,0.1141396076654084
1758447619909340000,2.14833984375,0.2746235813438892,-0.011882453234493731,0.06715641402583569
1758447619919312000,2.158311767578125,0.1656558416247368,-0.06496756221204995,0.009691719990875572
1758447619929284900,2.168284912109375,0.06409983946681022,-0.05060410581678152,-0.011229688414186239
1758447619939257900,2.1782578125,0.03474339660108089,-0.009493512271344661,-0.013479312238190322
1758447619949230800,2.18823095703125,0.07052899573147296,0.04894464817196131,0.06887786752358079
1758447619959202800,2.198202880859375,0.06508943502604961,0.08350742750912904,0.09169593986282125
1758447619969175800,2.20817578125,0.00005436053574085235,0.05875818617790937,0.03359890274107456
1758447619979148800,2.218148681640625,0.010118658432364463,0.026231004321575165,0.01587309377323836
1758447619989121800,2.228121826171875,0.03928162455260754,0.006928337958455085,0.0413545949017629
1758447619999095000,2.238094970703125,0.08758008377552032,0.03812280990630388,0.0828444883546792
1758447620009066800,2.248066650390625,0.15446867717802523,0.05855535708218813,0.08743682111361994
1758447620019039700,2.258039794921875,0.18773790957331657,0.07157879704535007,0.07726756500517949
1758447620029013000,2.268012939453125,0.17373861031532287,0.05922141977548599,0.07297357587199657
1758447620038985700,2.27798583984375,0.1482131239145994,0.0632882308229804,0.053559740751981735
1758447620048958000,2.2879580078125,0.101745387250185,0.0445572268679738,0.040275147368293254
1758447620058931000,2.297930908203125,0.0919680896013975,0.10311053812354802,0.03153736710138619
1758447620068904000,2.307904052734375,0.11807166815102099,0.1580456588819623,0.04668064876273274
1758447620078877000,2.317876953125,0.13453063552081584,0.1934264766037464,0.07747201980240642
1758447620088849200,2.32784912109375,0.1821598171800375,0.15038228464722633,0.12601254415288568
1758447620098822000,2.33782177734375,0.19925532888770103,0.12101882751882076,0.17530280915843321
1758447620108795000,2.347794921875,0.18522154283821582,0.08943301816582679,0.18635471158660946
1758447620118767900,2.357767822265625,0.17895371461510656,0.03443067739009857,0.14751940602939576
1758447620128740000,2.367739990234375,0.1668874292463064,0.02960515692979097,0.10656184762120247
1758447620138712800,2.377712890625,0.2224479884266853,-0.018901976607739925,0.0374613503228873
1758447620148685800,2.387685791015625,0.3295458426207304,-0.07034691716283559,-0.006933160264044999
1758447620158659000,2.3976591796875,0.3306371449887752,-0.1030550085440278,-0.01418963419832289
1758447620168632000,2.407632080078125,0.30114392400085926,-0.12128946115374564,-0.03047054158747196
1758447620178603800,2.417603759765625,0.23179273987710475,-0.09218436270058154,-0.013803995881602167
1758447620188577000,2.427576904296875,0.13284370534718035,-0.037866497057676314,0.012355989030376076
1758447620198550000,2.437550048828125,0.022017770540714264,-0.01754763938933611,0.023431875122338533
1758447620208523000,2.44752294921875,-0.04509703283309936,-0.02318155362308025,0.031397739434987304
1758447620218495000,2.457494873046875,-0.0581231031447649,-0.03700783440172672,0.01108461738768965
1758447620228468000,2.467468017578125,-0.06236205588877201,-0.05191343484967947,-0.034781609719619154
1758447620238441000,2.47744091796875,-0.030247254225611683,-0.06244213538765907,-0.06051266516242176
1758447620248414000,2.4874140625,-0.03411737365722656,-0.03722790689319372,-0.037419009018503126
1758447620258386000,2.497385986328125,-0.009340075275301932,-0.00783785401880741,0.011960523439384996
1758447620268359000,2.50735888671875,0.021039865419268607,0.012385434320569037,0.08381594546902925
1758447620278332000,2.517331787109375,0.09285773191750049,0.031046295648813244,0.10730656504128128
1758447620288305200,2.52730517578125,0.1587789415925741,-0.00315144976824522,0.0754938150646165
1758447620298278000,2.53727783203125,0.15264379983842372,-0.027953882591426372,0.07524141120612621
1758447620308249900,2.547249755859375,0.11906301727592944,-0.027565467795729635,0.07669840508140623
1758447620318223000,2.55722314453125,0.07495967165529728,-0.013266601069271564,0.10136310993432998
1758447620328196000,2.567196044921875,0.07706161237061024,-0.008868658371269702,0.10303181033153086
1758447620338168800,2.5771689453125,0.11471885059177875,0.04711743274480104,0.09106127695478498
1758447620348141000,2.58714111328125,0.1483352889895439,0.09434475560486316,0.10848784724771976
1758447620358114000,2.597114013671875,0.23789573292732238,0.10934329503327607,0.14518880765736103
1758447620368087000,2.607087158203125,0.303328282302618,0.07031418393701315,0.09704835200775414
1758447620378059800,2.617059814453125,0.23074761473834512,-0.020299860706925393,0.04327555302698165
1758447620388032000,2.627031982421875,0.1419347742974758,-0.07671323732435703,0.0023174100968986746
1758447620398005000,2.6370048828125,0.1118237136721611,-0.07181640519350767,-0.009332586088590323
1758447620407978000,2.64697802734375,0.11443594199717044,-0.028382337136566637,-0.011912775307521222
1758447620417951000,2.656950927734375,0.11975859832465648,0.0065653498649597165,0.03366312708370387
1758447620427923000,2.6669228515625,0.04070084370076656,0.03791121298223734,0.051456229134090245
1758447620437896000,2.67689599609375,-0.08500000415444374,0.04754764085561037,0.03902118351813406
1758447620447869200,2.686869140625,-0.1664782639235258,0.04927928695380687,0.023851269578188658
1758447620457842000,2.696842041015625,-0.13437398365437983,0.034006314498186106,0.005255326712317764
1758447620467814000,2.70681396484375,-0.05029693956375122,-0.006670563805103302,0.006258585470728576
1758447620477787100,2.716787109375,-0.020176526588201522,-0.055496846294403074,0.05962441108580678
1758447620487760100,2.726760009765625,0.009933949515223502,-0.021088380736112595,0.1078433753317222
1758447620497732900,2.73673291015625,-0.016443769800662995,-0.013875088356435299,0.09175868463441729
1758447620507705900,2.746705810546875,-0.04851531684398651,-0.02242605908066034,0.09580887334067374
1758447620517678000,2.756677978515625,0.055471127331256864,-0.004944762925803661,0.08502199679054319
1758447620527651000,2.766651123046875,0.21480945637226104,-0.04806143559664488,0.03323017902653664
1758447620537623800,2.776623779296875,0.2913905917495489,-0.07754588875621557,-0.017009513924643397
1758447620547597000,2.78659716796875,0.24651859984397886,-0.07204261516481637,-0.029974647829309104
1758447620557569000,2.796569091796875,0.12987491866946219,-0.046805005794763564,-0.00787281573433429
1758447620567542000,2.8065419921875,0.033114918616414066,0.014772037196159361,0.0011235241372138261
1758447620577515000,2.816514892578125,-0.0031692776858806607,0.03609977964609861,0.025919929078407584
1758447620587488000,2.826488037109375,-0.01530804376900196,0.07069295412153005,0.07111169099025427
1758447620597460000,2.8364599609375,0.04389700939357281,0.11768033074587583,0.08254950572978705
1758447620607433000,2.846432861328125,0.11596622030436991,0.10792319910228251,0.08449643854647874
1758447620617406000,2.856406005859375,0.1476028830617666,0.08618833715617656,0.09704159347340464
1758447620627379000,2.86637890625,0.1661561923623085,0.09356500340402125,0.06388590445518494
1758447620637351000,2.876350830078125,0.15939736575186253,0.055928807970881456,0.04660787578746676
1758447620647324200,2.88632421875,0.15271043533384798,0.06233809049129486,0.04678195371273905
1758447620657297000,2.896296875,0.15528350069224833,0.04833177697062492,0.03570402179416269
1758447620667270000,2.906269775390625,0.17193009958863256,0.055253100666403765,0.052598713700100774
1758447620677243000,2.916242919921875,0.2208499055802822,0.07538169645965098,0.022784151803329586
1758447620687215000,2.926215087890625,0.22817045772671699,-0.01112228251695633,0.005313523172959685
1758447620697187800,2.936187744140625,0.21661270640194416,0.009815876093506813,0.055547699698805804
1758447620707160800,2.946160888671875,0.1538596053689718,0.0015454758763313293,0.07548760451953858
1758447620717134000,2.956134033203125,0.07585691275596618,-0.023104396733641622,0.04727068707775324
1758447620727105800,2.966105712890625,0.02890811457633972,-0.0305275324717164,0.03997753439489752
1758447620737078800,2.976078857421875,0.05236380896568298,-0.046884500771760936,0.04159015722330659
1758447620747052000,2.986052001953125,0.029165888729691503,-0.04781038344502449,0.032579679228551685
1758447620757025000,2.99602490234375,0.028491934990882872,-0.04824263738244772,-0.0022173472559079525
1758447620766996700,3.005996826171875,0.05047288065254688,-0.034864392632246013,-0.004875168288312852
1758447620776970000,3.015969970703125,0.11510405051708221,-0.025480770476162432,-0.0016472192177549004
1758447620786943000,3.02594287109375,0.11837503501176834,-0.05199351434856653,0.004237418374046683
1758447620796916000,3.035916015625,0.08541501469612121,-0.031924247527122494,0.012354198932088912
1758447620806888000,3.045887939453125,0.01421615687906742,-0.007655190928280353,0.01510470321662724
1758447620816861000,3.05586083984375,-0.0343903453797102,-0.016854980950057507,0.0019175971243530511
1758447620826834000,3.065833984375,-0.08164543302953242,-0.043704409430921076,-0.00010736936461180447
1758447620836807000,3.075806884765625,-0.09202420370280742,0.0027393618360161778,0.009954955770634114
1758447620846779000,3.08577880859375,-0.046163200759887696,0.033095044872164726,0.053644569491222496
1758447620856751900,3.095751953125,0.02558101598024368,0.04025046958476305,0.06613203941415995
1758447620866724900,3.105724853515625,0.07578618560731411,0.014294482812285422,0.06013440643455833
1758447620876698000,3.115697998046875,0.09652677581906319,0.0019096330136060713,0.04265742112863809
1758447620886671000,3.125671142578125,0.06490823324024676,-0.01639554674476385,0.006406359910964965
1758447620896642800,3.135642822265625,0.04422024999856949,0.006880114902555942,0.02484758713915944
1758447620906616000,3.145615966796875,0.03693710725307464,0.06151099201738834,0.047194553101621566
1758447620916589000,3.155589111328125,0.05461597180664539,0.11005787304341792,0.06658343644347041
1758447620926562000,3.16556201171875,0.11523849055171012,0.1127647939145565,0.10126933070365339
1758447620936534000,3.175533935546875,0.19179975218474865,0.11663608238995074,0.07349960904009639
1758447620946507000,3.185507080078125,0.2431529228031635,0.10114566779136658,0.02115147256758064
1758447620956480000,3.19547998046875,0.23402853610515592,0.09956862773299216,-0.00361482949629426
1758447620966453000,3.205452880859375,0.2531698744267225,0.09989654451310634,0.005992299217358231
1758447620976425000,3.215425048828125,0.32442426182329653,0.08166267642527818,0.019910496063157916
1758447620986398000,3.22539794921875,0.4030845415621996,0.03207856130599975,0.053572234907373784
1758447620996371000,3.235370849609375,0.4658265366792679,-0.01703559821397066,0.0618097923008725
1758447621006344200,3.24534423828125,0.5189724359333515,-0.045397184823453424,0.06718980483878403
1758447621016316000,3.25531591796875,0.4826794718027115,-0.03786445123106241,0.1035363257875666
1758447621026289000,3.265288818359375,0.34488954222500323,-0.0011789806514978407,0.10950221192203462
1758447621036262100,3.27526220703125,0.19515724591910838,0.016558043830096722,0.013633900011703372
1758447621046235400,3.2852353515625,0.038113165295124055,0.04065934264659881,-0.04844532034769654
1758447621056207400,3.295207275390625,-0.09707155022025107,0.06393032811880112,-0.014227810784243046
1758447621066180400,3.305180419921875,-0.08815233070552349,0.06860621097534894,-0.012651939769648015
1758447621076153300,3.3151533203125,-0.03114449532628059,0.08459317691922187,0.016975611655041575
1758447621086126300,3.325126220703125,0.03303016294240951,0.07319032389521599,0.10631072240434586
1758447621096098300,3.335098388671875,0.1046644895672798,0.07465045957565307,0.14653079685084522
1758447621106071300,3.3450712890625,0.0849929898917675,0.05059621477127075,0.11955602495726197
1758447621116044300,3.355044189453125,0.06167290458083152,0.0507052281036973,0.0662917234878987
1758447621126017300,3.365017333984375,0.0988876597315073,0.0386535557821393,0.03541775219868868
1758447621135989500,3.374989501953125,0.12331658306717871,0.01703939760625362,0.05648768396265805
1758447621145962200,3.384962158203125,0.14033902953863142,0.010371464149653911,0.08364584959913045
1758447621155935200,3.394935302734375,0.1921376058369875,-0.021553367899358272,0.07248020286448299
1758447621165908200,3.404908203125,0.15262100348472593,-0.05161678999066353,0.03579246726259589
1758447621175880400,3.41488037109375,0.01765431463420391,-0.05873363625854253,-0.0044188028229400515
1758447621185853200,3.424853271484375,-0.0832721574485302,-0.01855272477865219,-0.0049487449811771505
1758447621195826200,3.434826171875,-0.10529460416436194,0.00632686493396759,0.01798727291561663
1758447621205799400,3.44479931640625,-0.045671033328771586,0.014496727386116981,0.06826996475830674
1758447621215772400,3.4547724609375,0.06470248153507709,0.039486791735887525,0.09257591930143534
1758447621225744100,3.464744140625,0.17775719830691813,0.004771744446456432,0.06771021198369562
1758447621235717400,3.47471728515625,0.20783435666263103,-0.039217911666631695,0.08689064020663499
1758447621245690400,3.4846904296875,0.21918752532601354,-0.07283230423778295,0.06596797142624855
1758447621255663400,3.494663330078125,0.2325356671988964,-0.09702771107852458,0.03822659907434135
1758447621265635300,3.50463525390625,0.25697452740669247,-0.10683452708274126,0.023701120517775415
1758447621275608300,3.5146083984375,0.24306816712915896,-0.07664455600231886,0.005756919558905065
1758447621285581300,3.524581298828125,0.21314766063988208,-0.0491322796985507,-0.004397650437057018
1758447621295554300,3.53455419921875,0.11484510731995105,-0.02600070269703865,-0.006164258250780403
1758447621305526300,3.5445263671875,0.05391629910469055,0.005520516987144947,-0.00621635376419872
1758447621315499300,3.554499267578125,0.06350187357366084,0.04498275880366564,0.03641881900001317
1758447621325472300,3.56447216796875,0.07396715348660945,0.05106412454396486,0.08759159155022353
1758447621335445500,3.574445556640625,0.08008943575918674,0.07810498394370079,0.14225516535826027
1758447621345417200,3.584417236328125,0.048776598128676414,0.1353466280788183,0.1589313556753099
1758447621355390200,3.59439013671875,-0.03729366560578346,0.14121931950449942,0.1489253273045644
1758447621365363500,3.604363525390625,-0.12017302434444427,0.10932488259375095,0.09224617589041591
1758447621375336400,3.61433642578125,-0.16650164479911325,0.06136427702307701,0.02587291159890592
1758447621385308200,3.62430810546875,-0.17303367691636085,0.03428483917862177,0.02379924713000655
1758447621395281400,3.634281494140625,-0.1566571271330118,0.02575929515659809,0.023137166492082178
1758447621405254400,3.64425439453125,-0.10638415296673774,-0.0010822422787547111,0.029481567082740363
1758447621415227400,3.654227294921875,-0.06554828470945358,-0.02056435686200857,0.03493066280148923
1758447621425199400,3.664199462890625,-0.02674187645316124,0.0006552490383386611,0.033353330482169985
1758447621435172400,3.67417236328125,-0.04093699054419994,0.005750818611681461,0.03232705617435276
1758447621445145300,3.684145263671875,-0.0879120922088623,0.026272797636687755,0.037010537815466524
1758447621455118300,3.694118408203125,-0.10271101741194724,0.04649491693228483,0.052382257937826214
1758447621465090300,3.70409033203125,-0.0427466703146696,0.06772972040176391,0.06290573431141674
1758447621475063300,3.714063232421875,0.06631050125360488,0.015147007988393305,0.04211893033776432
1758447621485036300,3.724036376953125,0.1753887156099081,-0.017976678456366062,0.03885590995382517
1758447621495009500,3.734009521484375,0.22183716305196283,-0.0692939009785652,0.030818843568488952
1758447621504981200,3.743981201171875,0.16696049448251724,-0.10094546904414892,-0.00782568865697831
1758447621514954200,3.753954345703125,0.09797872819304465,-0.0992184991210699,-0.02448101884908974
1758447621524927500,3.763927490234375,0.04689151503443718,-0.0563037787631154,-0.007867372374236584
1758447621534900500,3.773900390625,0.050264790859818456,-0.014691373175382614,-0.0005231470912694931
1758447621544872200,3.7838720703125,0.08226619527637959,0.03974222780168056,-0.015733173845894635
1758447621554845400,3.793845458984375,0.08549450967311858,0.0875724849909544,-0.04932049574702978
1758447621564818400,3.803818359375,0.005122749841213226,0.08235971877872944,-0.03471004232075065
1758447621574791400,3.81379150390625,-0.0666886869162321,0.05042494985759258,0.0033395927514880894
1758447621584763400,3.823763427734375,-0.05737725321352481,0.026651860082149505,0.02692808320764452
1758447621594736400,3.833736328125,0.047048751422762866,-0.015398352400958538,0.07330660721864551
1758447621604709400,3.84370947265625,0.24569617754518985,-0.02786240491569042,0.09790080411862581
1758447621614682400,3.853682373046875,0.4328507342725992,-0.023091829513013362,0.08483509591631591
1758447621624654300,3.863654296875,0.4867290394544601,-0.020907471211254594,0.06467267091870307
1758447621634627300,3.87362744140625,0.3770534437268972,-0.01634557012319565,0.05314765281975269
1758447621644600300,3.883600341796875,0.15204524942338465,0.013787702333927154,0.01839797260835767
1758447621654573600,3.893573486328125,0.010578092637658118,0.04311170423477888,-0.02263586590643972
1758447621664545300,3.903545166015625,-0.03567278640568256,0.034493805754184724,-0.02272876835428178
1758447621674518300,3.913518310546875,-0.06076105043292045,0.049822892311215394,-0.020879304562695322
1758447621684491500,3.923491455078125,0.01307633919417858,0.04327566262483597,0.011823964512906968
1758447621698203400,3.937203369140625,0.08456862699985504,0.04660539156943559,0.07872329850513488
1758447621708176400,3.94717626953125,0.07683774048686028,0.04824088381677866,0.11811660327129066
1758447621718148400,3.9571484375,0.17192600793540477,0.041833354862034315,0.057325267297960815
1758447621728121300,3.967121337890625,0.2999287029922008,0.023426760555803776,0.014419935822859406
1758447621738094300,3.97709423828125,0.2818897729545832,-0.00008417115211486816,0.014880319876223801
1758447621748067300,3.9870673828125,0.21812486453056334,-0.014391221185028552,-0.016765183774754402
1758447621758039300,3.997039306640625,0.14630582898855207,-0.02522241180092096,-0.031120493396185337
1758447621768012300,4.00701220703125,0.013837386694550513,-0.020610241830348968,0.004789864625036716
1758447621777985300,4.0169853515625,-0.08707447234094143,0.027457038985192774,0.03009180793557316
1758447621787958300,4.026958251953125,0.02764730086028576,0.08361001110076904,0.06262362943440675
1758447621797930200,4.03693017578125,0.2346615733116865,0.08919774810522794,0.12221651287078857
1758447621807903200,4.0469033203125,0.33944705891013144,0.07010024892538785,0.10682174066640436
1758447621817876200,4.056876220703125,0.2814993123322725,0.003102349929511547,0.020299678043834864
1758447621827849500,4.066849365234375,0.03847556886672973,-0.032464638014137744,-0.03303622735701501
1758447621837821200,4.0768212890625,-0.20135960769057273,-0.032386896602809426,-0.020636216521821914
1758447621847794200,4.086794189453125,-0.2988268792301416,0.008825111490488051,0.03696330114025623
1758447621857767400,4.096767333984375,-0.24545944617986679,0.09501870934367179,0.10956479229684918
1758447621867740400,4.106740478515625,-0.05704466025829315,0.14435878657400608,0.16654015017859636
1758447621877712100,4.116712158203125,0.1115448967307806,0.12703648037314413,0.19243556587025523
1758447621887685400,4.126685302734375,0.1914922936707735,0.0832566676184535,0.18004001201447098
1758447621897658400,4.136658447265625,0.18717092334032057,0.0004129647150635719,0.11033482682127504
1758447621907631400,4.14663134765625,0.15887246509492398,-0.05886895307600498,0.041406142425909634
1758447621917603300,4.156603271484375,0.1692185025423765,-0.07873071462661027,0.029353008799627423
1758447621927576300,4.166576416015625,0.20727029303908348,-0.09773878195732831,0.0785897352533415
1758447621937549300,4.17654931640625,0.23710721289813516,-0.06155570794194937,0.11343345042373984
1758447621947522300,4.186522216796875,0.30204408771097657,-0.014452595983445643,0.13749244446847586
1758447621957494300,4.196494384765625,0.3436626307785511,-0.022767127603292463,0.1298943905549124
1758447621967467300,4.20646728515625,0.40661797638535496,-0.05082447056919336,0.1509506956523284
1758447621977440300,4.216440185546875,0.37667818067371844,-0.039814123994112015,0.14792042457833884
1758447621987413500,4.22641357421875,0.3071656685084104,-0.06690583679825067,0.04937306618448346
1758447621997386500,4.236386474609375,0.24980770451724527,-0.11356675794720648,0.03353197498470545
1758447622007359200,4.246359130859375,0.14948679711222648,-0.10390344206690788,0.0814636101892218
1758447622017332200,4.256332275390625,0.017348609685897826,-0.037433658598363395,0.10833864803537725
1758447622027304400,4.266304443359375,0.03844517372846603,0.027905367274582385,0.1497503068866208
1758447622037277400,4.27627734375,0.06822422592043877,0.06818067903965712,0.1634180726353079
1758447622047250200,4.286250244140625,-0.0022223522245883942,0.06271569163203239,0.1911580932803452
1758447622057223400,4.296223388671875,-0.07811316725015639,0.04644114091843366,0.2020771813753992
1758447622067195400,4.3061953125,-0.06649521017074585,0.04912117378264665,0.16423198283407836
1758447622077168000,4.316168212890625,-0.10168751958310604,0.011976853519678116,0.09809062760230153
1758447622087141400,4.326141357421875,-0.12443477344214915,0.018637480452656743,0.10717873741053044
1758447622097114400,4.3361142578125,-0.20443711543977258,0.054016836869716645,0.057597654498554765
1758447622107086300,4.34608642578125,-0.23777298333048819,0.028833003513514994,0.061162836166843766
1758447622117059300,4.356059326171875,-0.19614216530323028,0.00932926162034273,0.10448683144543319
1758447622127032300,4.3660322265625,-0.11004793617129326,0.019891864427924157,0.12184683930817991
1758447622137005300,4.37600537109375,0.009665069445967674,0.04679273083508014,0.11343783433791249
1758447622146977300,4.385977294921875,0.13499357685744762,0.02716653160601854,0.07312672060709446
1758447622156950300,4.3959501953125,0.2056178496569395,0.023470307436585423,0.05988152765203267
1758447622166923300,4.40592333984375,0.16675006660223007,0.034927520996332166,0.0455718472706154
1758447622176896300,4.415896240234375,0.08316402089893818,0.03504091824293137,0.04314911363571882
1758447622186868200,4.4258681640625,0.09274433467090129,0.0022118308305740355,0.05433445145152509
1758447622196841200,4.43584130859375,0.21856091786026954,-0.03642681964337825,0.08645257758293301
1758447622206814200,4.445814208984375,0.4029126921266317,-0.06457388671934604,0.06951620195973664
1758447622216787500,4.455787353515625,0.49432139427959915,-0.08548194245249033,0.006076214641146362
1758447622226759200,4.46575927734375,0.4432575619965791,-0.0732309481665492,-0.0035798312481492758
1758447622236732200,4.475732177734375,0.25608196248114107,-0.036142742004990576,0.013372801390103994
1758447622246705400,4.485705322265625,0.032464930275082585,0.006502221500873566,-0.01229242227487266
1758447622256678400,4.495678466796875,-0.06929507002234458,0.04889876320362091,-0.035367337185703215
1758447622266650000,4.505650146484375,-0.08174597079455852,0.05523936440199613,-0.040470213282667096
1758447622276623400,4.515623291015625,-0.03644318625628948,0.060364452330768106,-0.008631232886202633
1758447622286596400,4.525596435546875,0.051504561787843704,0.059844520109891886,0.029272637039795515
1758447622296569300,4.5355693359375,0.10936053842902183,0.046206163118779654,0.07343834383953363
1758447622306541300,4.545541259765625,0.169614808383584,0.01609451797157526,0.09124116356633603
1758447622316514300,4.555514404296875,0.2899363012880087,0.004743687395751476,0.08137622416671365
1758447622326487300,4.5654873046875,0.32539865981340405,0.0031210546299815177,0.07841130994651466
1758447622336460300,4.575460205078125,0.33139877701103687,0.01108516537696123,0.05180131624471396
1758447622346432300,4.585432373046875,0.28850772978961464,0.011828384959697723,0.023146409244462846
1758447622356405200,4.5954052734375,0.10585632970035075,0.0059612464919686315,0.02295260370541364
1758447622366378200,4.605378173828125,-0.04110182571709156,0.025112521685659885,0.00875752614699304
1758447622376351200,4.615351318359375,-0.1268202072739601,0.03650017714053392,-0.03599873042441904
1758447622386323200,4.6253232421875,-0.12453589572906494,0.03768938692510128,-0.0015273191651329397
1758447622396296200,4.635296142578125,-0.08371931669414043,0.06646218468397855,0.013920023476704955
1758447622406269200,4.645269287109375,0.015202829828858375,0.08673749547153711,-0.00808229376655072
1758447622416242400,4.655242431640625,0.1301098964691162,0.08349222993999719,-0.008190941772796213
1758447622426214100,4.665214111328125,0.1585913100659847,0.0539510781571269,-0.018729907976463435
1758447622436187400,4.6751875,0.1353524732977152,-0.002007540430128574,-0.032929442514292896
1758447622446160400,4.685160400390625,0.127756611341238,-0.026118483857810494,-0.048305327355116605
1758447622456133400,4.69513330078125,0.12039806527197361,-0.01715717876702547,-0.03933017640206963
1758447622466105300,4.705105224609375,0.11766893256902694,-0.013709960922598838,-0.0030669132899492977
1758447622476078300,4.715078369140625,0.14578151285350321,0.019456980141997336,0.012580774229578673
1758447622486051300,4.72505126953125,0.20293138705193994,0.05110036490112543,0.006098791799135506
1758447622496024300,4.7350244140625,0.22008418190479279,0.05097060104161501,0.01573671750985086
1758447622505996300,4.744996337890625,0.20476912387311458,0.04431669611036777,0.04058236842025071
1758447622515969300,4.75496923828125,0.1828741029292345,0.05986527063697576,0.036804859175533056
1758447622525942300,4.7649423828125,0.11477613373696803,0.05450841977894306,0.02175911960452795
1758447622535915300,4.774915283203125,0.05038520236909389,0.07704758384525776,0.030954416114278138
1758447622545887200,4.78488720703125,-0.02617664378583431,0.06102028589099645,0.024351108859106897
1758447622555860200,4.794860107421875,-0.012757774764299392,0.06274930164068937,0.01402213214430958
1758447622565833200,4.804833251953125,0.057056935217976563,0.07237257777154445,0.004269494012743234
1758447622575806500,4.814806396484375,0.15711246968507767,0.024846271964907643,0.02329692363105714
1758447622585778200,4.824778076171875,0.21397826624512672,-0.015421733276546001,0.031204810678772628
1758447622595751200,4.834751220703125,0.26863983075916764,-0.023519115014374255,0.009885762991942465
1758447622605724400,4.844724365234375,0.3106920890688896,-0.022988369138538835,0.014138415467739104
1758447622615697400,4.854697509765625,0.229559866258502,-0.07207797873914241,-0.04405643773898482
1758447622625669000,4.864669189453125,0.08049450942873955,-0.08196692006886006,-0.052699105334654446
1758447622635642400,4.874642333984375,0.03382569723427296,-0.052903030408918854,-0.01960201463587582
1758447622645615400,4.884615478515625,0.005093523746728897,-0.00748714088499546,0.03682805738802999
1758447622655588400,4.89458837890625,-0.033953707528114316,0.012108955466747283,0.07835154258329421
1758447622665560300,4.904560302734375,-0.0011707973450422286,0.06448211678266524,0.033912352604418994
1758447622675533300,4.914533203125,0.07304711603224277,0.09028671238571405,0.0039237493149936195
1758447622685506300,4.92450634765625,0.12868307853639124,0.05413900194466114,0.03810768540240824
1758447622695479300,4.934479248046875,0.0802875886797905,0.0286453719869256,0.06737246792931109
1758447622705451300,4.944451171875,0.024760931769013405,0.020387246729433536,0.07226031303610653
1758447622715424300,4.95442431640625,0.021659458622336387,0.060383157031238074,0.10548658307250589
1758447622725397200,4.964397216796875,0.07137246081829071,0.07623480615764856,0.08525142163224518
1758447622735369200,4.974369140625,0.14919570521116257,0.10822072074413298,0.03574311169553548
1758447622745342200,4.98434228515625,0.18456103310286998,0.11920154896378517,0.05200440106876194
1758447622755315200,4.994315185546875,0.20384616380929946,0.12485036850571632,0.06607724048700184
1758447622765288400,5.004288330078125,0.2062625773012638,0.10409633429050445,0.03947762204874307
1758447622775260200,5.01426025390625,0.16908873868286609,0.052884325708448886,0.07912281921673565
1758447622785233200,5.024233154296875,0.23901976852118967,0.025101708030700682,0.12660459176190197
1758447622795206400,5.034206298828125,0.37367724529206753,0.03014817776530981,0.11705061800759285
1758447622805179400,5.044179443359375,0.4206938480108976,0.01175093580931425,0.04506050021499395
1758447622815151000,5.054151123046875,0.3220341518163681,0.012852759571373462,0.0001679769780486822
1758447622825124400,5.064124267578125,0.06943243266642093,0.01827946079522371,-0.030838315453939138
1758447622835097300,5.074097412109375,-0.11260229682922362,0.11098901641368865,-0.04381239985004067
1758447622845070300,5.0840703125,-0.1558206763088703,0.10724953762441873,-0.06522427691947669
1758447622855042300,5.094042236328125,-0.08200783660113811,0.09938391881585121,0.008158208546973765
1758447622865015300,5.104015380859375,0.004082885399460792,0.13037848427742718,0.06889912950731814
1758447622874988300,5.11398828125,0.06817746416926383,0.14135463632196188,0.07867061846982687
1758447622884961300,5.123961181640625,0.12000059038698672,0.13058598954826592,0.08963818534910678
1758447622894933200,5.133933349609375,0.169418993550539,0.06952683295160532,0.05805482368152588
1758447622904906200,5.14390625,0.18065701140165327,0.00392915614247322,-0.028364545751549303
1758447622914879200,5.153879150390625,0.08650865515172482,-0.028278876762092113,-0.0891826236013323
1758447622924852500,5.1638525390625,0.061652446314692494,-0.02296732635051012,-0.10785038959439844
1758447622934824200,5.17382421875,0.08196165937185287,-0.022100772649049756,-0.09904405586961657
1758447622944797200,5.183797119140625,0.09336158978641032,0.014572422970831393,-0.040327334213256835
1758447622954770400,5.1937705078125,0.08519932611882686,0.05653992560654878,-0.011596695095673203
1758447622964743400,5.203743408203125,0.0409562797665596,0.07557283511757851,0.023724063001945614
1758447622974715100,5.213715087890625,-0.02017185041308403,0.06723579940497874,0.04792436521351337
1758447622984688400,5.2236884765625,-0.07245733344554901,0.03438099302947521,0.032849436080642044
1758447622994661400,5.233661376953125,0.0035521395236253737,-0.0020627777487039565,0.013929156631231307
1758447623004634400,5.24363427734375,0.07475742708146571,-0.010451543648540973,0.03774926388617605
1758447623014606300,5.2536064453125,0.08720891237556934,-0.00034340661019086836,0.036247554086335
1758447623024579300,5.263579345703125,0.13121581188440323,0.03731938456892967,0.05025087193232029
1758447623034552300,5.27355224609375,0.1803548135846853,0.05419131665378809,0.058464208200015126
1758447623044524800,5.28352490234375,0.22098142300546167,0.03701221831589937,0.051123745776712894
1758447623054497000,5.2934970703125,0.23640929376184938,0.023663199660182,0.02107566738501191
1758447623064469800,5.3034697265625,0.182878779104352,0.018914543828368185,-0.013267477852106094
1758447623074442800,5.31344287109375,0.20930618278086185,0.021185995891690252,-0.028742731414176523
1758447623084415000,5.3234150390625,0.18749825559854508,0.025330840611457822,-0.020683124403469262
1758447623094388000,5.333387939453125,0.07249182023704051,0.037028584928810594,0.003919255802966654
1758447623104360700,5.343360595703125,-0.03167465668022632,0.05187836353629827,0.020028204158693552
1758447623114334000,5.353333984375,-0.22253800479769706,0.06834902134388685,0.039445254149101674
1758447623124306000,5.363305908203125,-0.2841407667517662,0.16000439173430203,0.04292805476356298
1758447623134279000,5.37327880859375,-0.2482768416881561,0.1889715430215001,0.054653892664238805
1758447623144252000,5.383251953125,-0.03526128299534321,0.19170593642145395,0.06627473582047969
1758447623154225000,5.393224853515625,0.09212415694594382,0.07584025388211012,0.03686842593103647
1758447623164196900,5.40319677734375,-0.05084697466194629,0.0747714556068182,-0.031983868759870526
1758447623174170000,5.413170166015625,-0.2715869901269674,0.21311258932650087,-0.08141324997516348
1758447623184142800,5.423142822265625,-0.5564116474896669,0.34653964751958843,-0.07060869163786992
1758447623194115800,5.43311572265625,-0.7453279531925916,0.48318771358579393,-0.02283527920236811
1758447623204088000,5.443088134765625,-0.9605687867194413,0.5193181806311011,0.05956405920069664
1758447623214061000,5.45306103515625,-1.0947224056214093,0.46799219028055666,-0.07781222980851307
1758447623224033800,5.46303369140625,-0.8231202179253101,0.4396960701227188,-0.10443142973007634
1758447623234006800,5.4730068359375,-0.5372574496865272,0.3513505549326539,0.0012762030814308673
1758447623243979000,5.48297900390625,-0.692023648506403,0.28810031803250313,-0.08453877985086292
1758447623253952000,5.492951904296875,-0.8044172710210085,0.3642164662465453,-0.29724333636574446
1758447623263924700,5.5029248046875,-0.7889134124189615,0.39140199481397864,-0.511384063163586
1758447623273898000,5.51289794921875,-0.5568897863954305,0.3461240524560213,-0.7877871848680078
1758447623283870000,5.522869873046875,-0.13276011871695517,0.3989437884956598,-1.9288943250454962
1758447623293843000,5.532843017578125,-0.3253133196175098,0.3129980279237032,-2.3784058328703046
1758447623303816000,5.54281591796875,-0.5223369439303874,0.007585048301517963,-1.8709737587355075
1758447623313789000,5.552788818359375,-0.6656757398068904,-0.05559095431864261,-1.743958613411337
1758447623323761000,5.562760986328125,-0.9902426249712705,0.42149668882638214,-1.4474306587733328
1758447623333734100,5.572734130859375,-0.8881447710216045,0.9920344768241047,-1.3626736695945263
1758447623343707000,5.582706787109375,-0.23218612310886383,0.8162117537111043,-1.8998199139915406
1758447623353680000,5.592679931640625,1.107211300316453,0.6173524384036659,-2.008899589652568
1758447623363652000,5.602652099609375,2.2651778053581713,0.27019728933423753,-1.7909852991327642
1758447623373625000,5.612625,2.649088275372982,0.06264934839755297,-1.7164990902081132
1758447623383597800,5.622597900390625,2.5534195776879787,-0.0013908698365092276,-1.4723685545444487
1758447623393570000,5.632570068359375,2.46695534619987,0.020958032354712487,-1.2212240484654904
1758447623403543000,5.64254296875,2.5085288810819386,0.1613002767637372,-0.9955872008696198
1758447623413516000,5.65251611328125,1.4971417612731457,0.3069292294040322,-0.17156418888568878
1758447623423488800,5.66248876953125,1.1307499968141317,-0.20897475886940955,0.5365189062789082
1758447623433461000,5.6724609375,1.6802075873821973,-0.9089026046290993,1.3947501850739121
1758447623443434000,5.68243408203125,2.581665428963303,-0.7428948808267712,0.6903367183327674
1758447623453407000,5.692406982421875,2.6767724011123177,-0.05718699133843183,-0.8891358278855681
1758447623463380000,5.7023798828125,2.1198434517502784,0.6546551640987396,-1.7687179377451538
1758447623473352000,5.71235205078125,1.4615274270564318,0.5971496083304285,-1.9545120197743175
1758447623483325000,5.722324951171875,1.204579203134775,0.355619318293035,-1.8245356865569948
1758447623493298000,5.7322978515625,1.8982155475348232,0.04952332484275102,-1.766789015509188
1758447623503271000,5.74227099609375,2.8247967244565486,-0.5331427078440785,-2.483205054733157
1758447623513243000,5.752242919921875,3.3770717105329036,-0.40497722344100473,-2.739723947326839
1758447623523216100,5.762216064453125,3.9025761785835025,-0.3342795931443572,-2.471621292184293
1758447623533188900,5.77218896484375,3.469166641384363,-0.6242940742351114,-2.040959884649515
1758447623543161900,5.782161865234375,2.618796597483754,-0.9265073810331523,-1.0809133682385086
1758447623553134000,5.792134033203125,2.2425386880487204,-0.8470696871809661,-0.004413432528078556
1758447623563107000,5.802107177734375,1.8380284975975751,-0.3618555823341012,0.46238954796791076
1758447623573079800,5.812079833984375,1.5077835667967796,0.12034180504009127,0.26769144399315115
1758447623583052000,5.822052001953125,0.9745528884083032,0.2823363476783037,-0.0453916318655014
1758447623593025000,5.83202490234375,0.6558399899691343,0.4546892027236521,0.009064765465259552
1758447623602998000,5.841998046875,-0.11089198578000067,0.747131641613692,0.023621406345069408
1758447623612970800,5.851970703125,0.9416244322746992,1.2966511915020644,-0.7973271666295826
1758447623622943000,5.86194287109375,1.2805121037364005,1.3320667882762849,-1.69938428927809
1758447623632916000,5.871916015625,1.1099907019019126,1.0893681851118802,-1.8860703517109154
1758447623642889000,5.881888916015625,-0.0976981576859951,1.2515716943256556,-1.803967091911286
1758447623652862000,5.891862060546875,0.6578431464850902,1.5589849078543483,-2.007569363962114
1758447623662834000,5.901833984375,1.5031646748244762,1.6026776268474756,-2.0778937770321964
1758447623672807000,5.911806884765625,1.6396166337966918,1.9789352440215646,-1.3130338787652551
1758447623682780000,5.92177978515625,2.428804771503806,2.1420681430399418,-0.8751853362053632
1758447623692753000,5.9317529296875,2.828568644210696,2.213616398816556,-0.6797537303242832
1758447623702724900,5.941724853515625,3.7227152859956023,2.6514181796252725,-0.8412579321622848
1758447623712697900,5.95169775390625,4.2922734153062105,2.916249850273132,-1.232410628390312
1758447623722671000,5.961671142578125,4.452241858944297,3.003924626594782,-1.2653458065256475
1758447623732642800,5.971642822265625,3.7343279823780056,2.073420431010425,-1.128163633582741
1758447623742616000,5.981615966796875,2.9399370153307913,1.712634815995395,-0.22871903152018785
1758447623752589000,5.991589111328125,1.986954738217592,1.5518607550628483,2.5672195549815893
1758447623762562000,6.00156201171875,1.2525596824496983,2.091811535486579,2.1789622879341244
1758447623772534000,6.011533935546875,0.5880138234555721,3.3283228771939872,0.3253600813686848
1758447623782507000,6.021507080078125,-0.530540124130249,3.9383009874373673,0.6528352551952004
1758447623792480000,6.03147998046875,-0.662961220151186,4.383053756427764,1.8079861182942984
1758447623802453000,6.041452880859375,0.010206921237707138,4.9110523793816565,2.7030753016263245
1758447623812425000,6.051425048828125,0.6878250277727842,5.199084892874956,3.3331951594054696
1758447623822398000,6.06139794921875,1.312663730278611,5.458147916993498,3.3857390011131763
1758447623832371000,6.071370849609375,1.3574755164295433,5.325476645603776,3.007593670496344
1758447623842344000,6.081343994140625,0.7133598665237426,5.1604520876199,2.449724809935689
1758447623852316000,6.09131591796875,-0.28249241502285,5.155207757225632,0.6320107860922813
1758447623862289000,6.101288818359375,-1.5854630188047885,4.089782173237205,-1.0023527494817972
1758447623872262000,6.111261962890625,-2.1469828030884264,2.8476079834625123,-1.4777794736772776
1758447623882233900,6.12123388671875,-1.9068559501081703,2.542814597043395,-1.2986509870171545
1758447623892206800,6.131206787109375,-1.6521464450240135,2.6509055539280175,-0.6338941156208515
1758447623902179800,6.141179931640625,-2.035377700603008,2.6721312973082063,-0.4011304848849773
1758447623912153000,6.151153076171875,-2.3063433439612386,2.903737866963446,-0.6721756232202053
1758447623922124800,6.161124755859375,-1.6990435130164026,3.1441759778499603,-0.9832897370934486
1758447623932097800,6.171097900390625,-1.3764800766289234,2.882198235328495,-1.6216776570022104
1758447623942071000,6.181071044921875,-1.157377891498804,2.3722806279882787,-2.3598709360092878
1758447623952044000,6.1910439453125,-0.7372545368522405,1.5960102779127656,-3.3412299973011015
1758447623962015700,6.201015625,-0.47987844290733334,0.7822323272198438,-4.14256859152913
1758447623971989000,6.210989013671875,-0.8611370832391083,0.19846593207567928,-4.601661436039209
1758447623981962000,6.2209619140625,-2.4669629449844357,-0.3445680551856756,-5.034698048272729
1758447623991935000,6.23093505859375,-4.4392865157812835,-0.6433604476243258,-5.600097304338217
1758447624001907000,6.240906982421875,-4.482648103123903,-0.50314124507308,-5.883461241498589
1758447624011880000,6.2508798828125,-3.05049757719934,-0.6679618049174547,-5.97202916726768
1758447624021853000,6.26085302734375,-1.5364853451460598,-0.7457420869514345,-5.867490934428572
1758447624031825000,6.270824951171875,-0.5810849009752274,-0.6409624465718865,-5.22171816496551
1758447624041798000,6.2807978515625,0.002469604983925819,-0.9032967474460601,-4.789584054529667
1758447624051771600,6.290771728515625,0.5653489871829748,-1.4603896551981568,-4.766501869627833
1758447624061744600,6.30074462890625,1.2511153288602828,-1.9931404411152005,-4.429409264889359
1758447624071716900,6.310716796875,1.1471429132103919,-2.0394111939027906,-4.277128453144431
1758447624081689600,6.320689697265625,0.4815665421247482,-1.575437591613829,-4.4145770219385625
1758447624091662600,6.33066259765625,0.002948328411579132,-0.6568395224004984,-4.485556684046983
1758447624101635600,6.340635498046875,0.16172317835092542,0.15947393811941146,-4.163740558895468
1758447624111607800,6.35060791015625,0.8370295008122921,0.22975275848209856,-3.6517607583284377
1758447624121580500,6.36058056640625,1.791834317177534,-0.3115419838964939,-3.614275369542837
1758447624131553500,6.370553466796875,3.028727059417963,-0.9774027248814702,-3.707316641333699
1758447624141526800,6.38052685546875,4.243462914907932,-1.133684881222248,-3.325950595104694
1758447624151498800,6.390498779296875,4.674398170948028,-1.2924483329847454,-2.3652052827745673
1758447624161471500,6.400471435546875,4.614476493948698,-1.501954714512825,-1.5236217719197271
1758447624171444700,6.41044482421875,4.153827652168274,-1.509791691748798,-1.4515964001506567
1758447624181416700,6.420416748046875,3.438656936830282,-2.1118927850067615,-2.17590202358067
1758447624191389700,6.4303896484375,3.255074977892637,-2.849913045534491,-3.1559996866345403
1758447624201362700,6.44036279296875,3.7260137430191036,-3.3735675018042324,-3.3342169036686418
1758447624211335700,6.450335693359375,4.122721735286713,-3.733060738921165,-3.1531390365064143
1758447624221307600,6.4603076171875,4.094539596897364,-4.004235641115904,-2.9281027851521966
1758447624231280600,6.47028076171875,3.798305072247982,-4.047632884293795,-2.633970201218128
1758447624241253600,6.480253662109375,3.579669920107722,-3.8220144491374493,-2.4924960301697254
1758447624251226600,6.4902265625,3.6369881366103884,-3.435851816281676,-2.1482716738551852
1758447624261198800,6.50019873046875,3.8086335740387436,-2.968727641007304,-1.5596195524960756
1758447624271171600,6.510171630859375,4.075650772032142,-2.1769185071468353,-0.6202081200957298
1758447624281144600,6.52014453125,4.505310601308942,-1.504011939303577,0.17394377749860285
1758447624291116800,6.53011669921875,5.133357744467258,-1.7449802115440367,-0.23224165268838404
1758447624301089800,6.54008984375,4.17302568911314,-2.9755303067594765,-2.777491952446103
1758447624311062500,6.5500625,2.1974515920877455,-2.4160975578829644,-1.2510165446609258
1758447624321035500,6.560035400390625,1.5937813498169182,-0.7616735233157873,-0.37773616529405113
1758447624331007700,6.5700078125,1.3752689472734927,-4.397892721380293,-3.425286583125591
1758447624340980700,6.579980712890625,-1.2134902393430471,-2.867776911266148,-4.309042763799429
1758447624350953500,6.589953369140625,-1.2820844676196574,-1.2572928484514354,-3.413616019076109
1758447624360926700,6.5999267578125,-0.08359948970675468,-1.383163207654655,-1.4234551782935856
1758447624370898700,6.609898681640625,-0.5097942732214927,-1.2887509397715329,-0.9155255299001932
1758447624380871700,6.61987158203125,-0.9785977798849343,-1.0157648965016006,-0.15551555588245392
1758447624390844700,6.6298447265625,-1.0292442635387182,-0.03901157543957233,2.2663562014877794
1758447624400816600,6.639816650390625,-0.890693286460638,-0.20022300487607717,3.513385722339153
1758447624410789600,6.64978955078125,-1.4046937792003154,0.2478615388855338,3.6460336128532886
1758447624420763000,6.659762939453125,-2.405717910426855,1.074095797178149,3.607482640662789
1758447624430735600,6.669735595703125,-1.6234978581666946,1.254623044720292,3.9075931299626827
1758447624440707600,6.67970751953125,-0.5245470211952924,2.1402926578000185,4.822724107587337
1758447624450680800,6.689680908203125,0.1394084706902504,2.581985162436962,4.653146708604693
1758447624460653800,6.69965380859375,0.2605032860547304,1.5535542611077426,3.5823850242853164
1758447624470626600,6.70962646484375,0.05052081601407844,1.258406947173178,2.729475232774019
1758447624480598800,6.719598876953125,0.3747141871243715,1.3928747465908526,1.7074410467445849
1758447624490571800,6.72957177734375,-0.6174690505206585,2.6241002568498253,1.443270470353961
1758447624500544800,6.739544677734375,-0.7500006211787462,3.517257303075492,3.1237644734621046
1758447624510516700,6.749516845703125,0.9342857599496841,3.898375804284215,3.4193905108243223
1758447624520489700,6.75948974609375,1.2343477339327336,4.093783225572109,4.725696396508813
1758447624530462700,6.769462646484375,0.6468436135649681,3.5937028293743727,7.261281626820564
1758447624540435700,6.779435791015625,0.30549685851335523,2.726217107760906,5.332109215486049
1758447624550407700,6.78940771484375,-0.8031272312104701,2.163249755017459,1.7174866399407385
1758447624560380700,6.799380615234375,0.7124047577559948,-0.3986757852092385,0.5673550663083792
1758447624570353700,6.809353759765625,3.0193209331691264,-2.5653441164985296,2.117541020026803
1758447624580327000,6.819326904296875,1.5713742876976728,-3.217194452309608,1.7631670256197451
1758447624590298600,6.829298583984375,0.062490066182613366,-3.027059710727632,1.3803420127540826
1758447624600271600,6.839271728515625,0.7147101120889187,-1.8032886081278323,1.3912620506972073
1758447624610244900,6.849244873046875,1.556764309195429,-0.6231418354600667,0.7011398518979549
1758447624620216600,6.859216552734375,2.008770264184475,0.7158586976021528,0.26056699894070623
1758447624630189600,6.869189453125,0.6517848693594336,1.5352368063896893,2.101199541556835
1758447624640162800,6.879162841796875,-0.8897361318662762,1.2908183936953543,1.4711889893710612
1758447624650135800,6.8891357421875,-1.5253705152831971,1.0814812312543391,1.008449897313118
1758447624660107500,6.899107421875,-2.1643245446421204,1.2340870371699333,0.6414017147719859
1758447624670080800,6.909080810546875,-3.609677520358562,1.0910375796288252,0.23302082036733626
1758447624680053800,6.9190537109375,-5.480070410466194,-0.10680793133676052,-0.8490408411234617
1758447624690026800,6.92902685546875,-5.320105473959446,-3.2211382214993236,-2.4285744698792695
1758447624699998700,6.938998779296875,-4.1252866173386575,-3.4735949792206284,-2.293632915470004
1758447624709971700,6.9489716796875,-2.9298949292659757,-3.46139483833909,-1.66619659768641
1758447624719944700,6.95894482421875,-1.738728165411949,-3.787389125958085,-0.9575283961102365
1758447624729916700,6.968916748046875,-0.7311117963135242,-4.3631332504272455,-0.16512509574890136
1758447624739889700,6.9788896484375,1.778739857804775,-5.157053092831373,0.46737493516504763
1758447624749862700,6.988862548828125,6.268094765090942,-5.083467632138729,1.1471905517444014
1758447624759835600,6.998835693359375,6.269915550777315,-5.341604189062118,1.4586092015221714
1758447624769807600,7.0088076171875,3.2836715423017737,-6.012851006999611,1.3939629802189766
1758447624779780600,7.018780517578125,1.5340584102600812,-6.748992029651999,1.1640218595579266
1758447624789753600,7.028753662109375,0.5575964733600616,-7.4794807256311175,0.7132940347459167
1758447624799726800,7.038726806640625,0.14829966968689112,-7.9471449991315595,0.2969202784238383
1758447624809698600,7.048698486328125,0.4274380615741014,-5.779017116683721,-0.17286853121621534
1758447624819671600,7.058671630859375,0.07157824905607849,14.127040671765803,3.5603584859162565
1758447624829644800,7.068644775390625,-1.0948510004371403,30.363707352650163,11.863541613274812
1758447624839616800,7.07861669921875,-0.2740420551288873,31.894055802476405,7.93772659792304
1758447624849589500,7.088589599609375,2.6840929532587525,22.76614326843023,-3.5895787351816892
1758447624859562800,7.098562744140625,1.541792803904414,16.518830594605205,-6.14884996150732
1758447624869535700,7.10853564453125,-1.839951574614644,9.197886233982443,-6.007008710712194
1758447624879507700,7.1185078125,-3.4456098247081037,2.9059096580445765,-3.0457424916267395
1758447624889480700,7.128480712890625,-3.662698331928253,-0.4468102860420942,0.9832429753422737
1758447624899453700,7.13845361328125,-5.262305026897788,-2.456832596114278,2.5565917779833076
1758447624909425700,7.14842578125,-5.179246219938993,-3.8932448711365457,2.339453586402535
1758447624919399000,7.15839892578125,-3.530650160872936,-5.350248683288693,1.420787420389056
1758447624929371600,7.16837158203125,-1.6279052993454037,-5.9847547933280465,1.5622724050924182
1758447624939344600,7.1783447265625,0.3741115450561046,-4.8572553227424615,2.603684660808742
1758447624949316900,7.18831689453125,1.8435430232353507,-2.395783376389742,3.325247707532346
1758447624959289900,7.198289794921875,2.0903040535330772,-0.8858400012105703,3.018581805239618
1758447624969262600,7.2082626953125,1.8726175804197787,-0.002861234650015831,2.597056182579696
1758447624979235600,7.218235595703125,1.6433324394494293,0.667013710412383,2.1584379708215593
1758447624989207800,7.228207763671875,1.429390998083353,0.76129533765316,1.6736258709043264
1758447624999180800,7.238180908203125,1.1667922741193324,0.5148357745200395,1.2328145330160856
1758447625009153500,7.248153564453125,0.7725899810623377,0.18579963498711585,0.823112911401689
1758447625019125800,7.258125732421875,0.30769235926363614,0.13571838400065897,0.6438973309800028
1758447625029098800,7.2680986328125,-0.1905857002198696,0.21647008306086063,0.4948603234618902
1758447625039071700,7.27807177734375,-0.6602683278053999,0.1581827292650938,0.12892390155494213
1758447625049044700,7.288044677734375,-1.0883042822074145,0.10972294200062752,-0.046757074999809266
1758447625059016700,7.2980166015625,-1.157899796481058,0.06705985831618308,-0.2750760012865066
1758447625068989400,7.307989501953125,-0.9997323378503322,-0.20249065754711626,-0.5465674220845103
1758447625078962700,7.317962646484375,-0.9280553411275148,-0.20424480773806572,-0.5948097672060132
1758447625088934700,7.3279345703125,-0.9796323836296796,-0.00263034850358963,-0.467635339666903
1758447625098907600,7.33790771484375,-0.739422528541088,0.08261223223507404,-0.48873628762364385
1758447625108880600,7.347880615234375,-0.6006950258523226,0.06234802736341953,-0.5642088772371411
1758447625118853600,7.357853515625,-0.3117120797663927,0.06477437772750855,-0.6302347163304686
1758447625128825600,7.36782568359375,0.11509820529818535,0.12970540732145308,-0.6810019037544727
1758447625138798600,7.377798583984375,0.3559183012396097,0.26416005499660966,-0.5742445335611701
1758447625148771600,7.387771484375,0.4248579819530248,0.30085926184058187,-0.5001832720503211
1758447625158743600,7.39774365234375,0.47885837914459406,0.23491116415858268,-0.486481202173233
1758447625168716500,7.407716552734375,0.5253642193296924,0.08788111254870891,-0.49707566142380233
1758447625178689500,7.417689453125,0.5376923705050721,0.018581950873136518,-0.37565468284487724
1758447625188662500,7.42766259765625,0.5310463200867176,0.03310089009106159,-0.1430026957899332
1758447625198634800,7.437634765625,0.5547621997822075,0.01495557706952095,0.08191928153485059
1758447625208607700,7.447607666015625,0.5802917778361588,-0.03601999240815639,0.24900661726742981
1758447625218580500,7.45758056640625,0.6512976703643798,-0.1228033728480339,0.33337329195439813
1758447625228553500,7.467553466796875,0.7168377717673778,-0.16689561255276203,0.34545419037044045
1758447625238525700,7.477525634765625,0.721618064846471,-0.10773498305380344,0.34460429554283617
1758447625248498700,7.487498779296875,0.694775066106394,-0.03955576531887054,0.27463848665207624
1758447625258471400,7.497471435546875,0.5755092197347432,0.028214287093281745,0.20202596264481543
1758447625268443600,7.507443603515625,0.37506964949853716,0.032516368201375004,0.146621178548038
1758447625278416600,7.517416748046875,0.1821896277964115,0.017831424766778944,0.050715749497711654
1758447625288389600,7.5273896484375,0.01850194443948567,-0.057277884492278094,-0.0007967033356428146
1758447625298362400,7.5373623046875,-0.07569551164917647,-0.1310895551562309,-0.03267155876308679
1758447625308334600,7.54733447265625,-0.1141601937957108,-0.13062953642904757,-0.0663227762132883
1758447625318307600,7.5573076171875,-0.1347322955727577,-0.06806582048833369,-0.057603755445778365
1758447625328280600,7.567280517578125,-0.13744973783791065,-0.0603536386758089,-0.04320493547618389
1758447625338252500,7.57725244140625,-0.1261416504252702,-0.0702747287094593,-0.021717034028470514
1758447625348225500,7.5872255859375,-0.11695998058207333,-0.025548867276310918,0.048908115553855894
1758447625358198500,7.597198486328125,-0.12825228590369223,-0.035901918986439706,0.1188973053202033
1758447625368171800,7.607171875,-0.15316460884213445,-0.05924480065107345,0.19198416884094477
1758447625378143500,7.6171435546875,-0.18652619569599627,-0.05612812993526459,0.2410816694870591
1758447625388116500,7.627116455078125,-0.17478073977939784,-0.1070265425235033,0.22885288703292606
1758447625398089700,7.63708984375,-0.1173169407935813,-0.10425707781016826,0.21102146226614713
1758447625408061400,7.6470615234375,-0.13236790452897548,0.007834931409358977,0.288201148058474
1758447625418034400,7.657034423828125,-0.16204930503275244,0.052367900618910786,0.3544900220021605
1758447625428007700,7.667007568359375,-0.09964702673144638,-0.03205167329907417,0.3119759913995862
1758447625437980700,7.676980712890625,-0.09834938813634216,-0.08427052083611487,0.3257411896407604
1758447625447952400,7.686952392578125,-0.13610424151308834,-0.06709259154200553,0.42324528605937956
1758447625457925600,7.696925537109375,-0.08166764486134052,0.04252630556225776,0.4471870103999972
1758447625467898600,7.706898681640625,-0.00807750799357891,0.0318587810754776,0.22516747651845215
1758447625477871600,7.71687158203125,-0.014903518088720738,-0.09213117120862006,0.1452940215975046
1758447625487843600,7.726843505859375,-0.2257990158876404,0.09603460838794707,0.4833899581596255
1758447625497816600,7.736816650390625,-0.4978226073335856,0.2434673955798149,0.8031102800756692
1758447625507789600,7.74678955078125,-0.5014543148994446,0.1645002418488264,0.7424117734849452
1758447625517761800,7.75676171875,-0.3833977712523192,-0.10294716425538063,0.4878939915806055
1758447625527734500,7.766734619140625,-0.09570077332369982,-0.6189198338508606,0.02344838786572218
1758447625537707500,7.77670751953125,0.26510632287077607,-1.1538450411975383,-0.6848313989147543
1758447625547679700,7.7866796875,0.48611065182778984,-1.3422124808460474,-1.2309461087957023
1758447625557652700,7.79665283203125,0.36440029838085175,-0.8714157545387744,-1.2348150591835378
1758447625567625500,7.80662548828125,-0.03819492529444396,0.015927052450180054,-0.9009595366701483
1758447625577598500,7.816598388671875,-0.359897726264596,0.5017570972383022,-0.621349106824398
1758447625587570700,7.82657080078125,-0.46108138797879217,0.5215466703355313,-0.3223547620728612
1758447625597543400,7.83654345703125,-0.3330301045399159,0.470955131739378,0.14160890334397552
1758447625607516400,7.846516357421875,-0.051170142201706764,0.390575188601017,0.5176797657743096
1758447625617489700,7.85648974609375,0.294823415742442,0.2346615733116865,0.7546259428918362
1758447625627461600,7.866461669921875,0.5639421160597354,0.1598024394214153,0.9620064183071255
1758447625637434400,7.876434326171875,0.8120283305466175,0.09962941800951958,1.098076392224431
1758447625647407600,7.88640771484375,1.0552174937069416,-0.002939560583233833,1.1402192514270544
1758447625657379600,7.896379638671875,1.1918968316942453,-0.09314297859966754,1.070787403282523
1758447625667352600,7.9063525390625,1.1680062530189752,-0.16726444586515427,0.8985875468418002
1758447625677325600,7.91632568359375,0.9547837735772132,-0.2567494864791632,0.6369342139691114
1758447625687298600,7.926298583984375,0.5647784938186406,-0.30315643286705013,0.3833133809044957
1758447625697270500,7.9362705078125,0.22332769387066362,-0.3175672355353832,0.1635220444664359
1758447625707243800,7.946243896484375,-0.10197510435283183,-0.2166974620759487,0.03634147944748401
1758447625717216500,7.956216552734375,-0.3648375938195735,-0.03692775490283966,-0.07573650124669075
1758447625727188500,7.9661884765625,-0.45062662945985793,0.01055588080585003,-0.3032046559229493
1758447625737161700,7.97616162109375,-0.500136802560091,-0.06590659662783145,-0.5059551334500313
1758447625747134700,7.986134765625,-0.6187140821456909,-0.12240823605060577,-0.6442401530683041
1758447625757107500,7.996107421875,-0.6884376067131758,-0.1596340971171856,-0.674266750280559
1758447625767079700,8.00607958984375,-0.7244646133840084,-0.15917758552134037,-0.7168368949845433
1758447625777052700,8.016052734375,-0.72679276407063,-0.10207973377108573,-0.634366701568663
1758447625787025700,8.026025634765626,-0.6843436153978109,-0.04246434624195099,-0.466231025826931
1758447625796998400,8.035998291015625,-0.677814578955248,-0.014176993912458418,-0.23214403753280638
1758447625806970600,8.045970703125,-0.5900058009903878,0.0016571195572614669,0.01770750612616539
1758447625816943600,8.055943603515624,-0.4330903882473707,-0.04446282658278942,0.22738719839453697
1758447625826916600,8.06591650390625,-0.2524064157735556,-0.06039923138320446,0.4623556456983089
1758447625836889600,8.0758896484375,-0.038242271567508576,-0.05401742139160633,0.6786319597527385
1758447625846861600,8.085861572265625,0.24881810895800588,-0.11322773525118827,0.7677069582611322
1758447625856834600,8.09583447265625,0.5438695613026618,-0.1579559347718954,0.8173211762577295
1758447625866807800,8.105807861328126,0.7147983748942613,-0.17061141820549963,0.7873363723605871
1758447625876780500,8.115780517578125,0.8048731250297277,-0.2102969473838806,0.692325554062426
1758447625886752500,8.12575244140625,0.7884054628968238,-0.1376432145833969,0.6085056996032595
1758447625896725800,8.135725830078124,0.7062368827760219,-0.0010468787044286727,0.5387012187540531
1758447625906698800,8.14569873046875,0.6069242756307125,0.055472880896925925,0.47068216001689434
1758447625916670500,8.15567041015625,0.5496020405400545,0.05897416701614856,0.38715339745879174
1758447625926643700,8.165643798828125,0.49133156481385226,0.05176467402875423,0.31412790873646734
1758447625936616700,8.17561669921875,0.403292631354928,0.06662555855214596,0.22985475755184887
1758447625946589700,8.185589599609376,0.31945933289229866,0.07132979072034358,0.11205606112331151
1758447625956561700,8.195561767578125,0.22564422718472776,0.017463175976276397,0.003533434823155403
1758447625966534700,8.20553466796875,0.09215520967133342,-0.07299041740894317,-0.04352992964684963
1758447625976507600,8.215507568359374,-0.054034883983060715,-0.1503700096875429,-0.026306699906289577
1758447625986480600,8.225480712890626,-0.16907346804849802,-0.17644903831779957,0.045399815171957014
1758447625996452600,8.23545263671875,-0.26577333541214465,-0.2059890210568905,0.1058896474480629
1758447626006425600,8.245425537109375,-0.3434901237558573,-0.22674130170643328,0.17641864317953584
1758447626016398600,8.255398681640624,-0.4144143293499946,-0.143603584292531,0.2773015683814883
1758447626026371600,8.26537158203125,-0.44886838761568065,-0.07506020942032336,0.3482289157807827
1758447626036343600,8.275343505859375,-0.4253092328518629,-0.09253682940006255,0.3659907824426889
1758447626046316500,8.285316650390625,-0.35314759441725907,-0.16420914994776248,0.3351888169437647
1758447626056290000,8.2952900390625,-0.21835392404608428,-0.1563479150533676,0.2999257803827524
1758447626066263000,8.305262939453126,-0.10269932697415352,-0.12873217837512493,0.2515145084351301
1758447626076235000,8.315235107421875,-0.00029109190106391906,-0.09463117133080959,0.18167554079443216
1758447626086208000,8.3252080078125,0.040862171742320055,-0.05899404076039791,0.12401684029102325
1758447626096181200,8.33518115234375,0.05792100470140576,-0.024998247656226158,0.12373422395735978
1758447626106153000,8.345153076171876,0.055166518361493944,-0.02778700159192085,0.1733998798802495
1758447626116126000,8.3551259765625,0.09392097723484039,-0.0529208583265543,0.21651626029014587
1758447626126099200,8.36509912109375,0.15889116979539394,-0.04641746778190136,0.2000397572636604
1758447626136072200,8.375072265625,0.2352232257824391,-0.07504851898252964,0.19772738866806028
1758447626146044000,8.3850439453125,0.2901957559417933,-0.09139701171517371,0.13521189578324555
1758447626156017200,8.39501708984375,0.3089016254555434,-0.07165069323778152,0.09820698399096726
1758447626165990100,8.404990234375,0.2852501892983913,-0.03066226476728916,0.10703151095956563
1758447626175963100,8.414963134765625,0.21968721847645936,-0.01175882685482502,0.10673545062243937
1758447626185935000,8.42493505859375,0.15489764317981897,-0.03110883949100971,0.09975129082351922
1758447626195908000,8.434908203125,0.10328618695139884,-0.05818506246507167,0.11183102019578217
1758447626205881000,8.444881103515625,0.10232874009609222,-0.1503665025562048,0.08889701159298419
1758447626215854000,8.45485400390625,0.11769750107638537,-0.18231471548080444,0.06508885050415993
1758447626225826000,8.464825927734376,0.1161672958344221,-0.09598024785220623,0.11414368105232715
1758447626235799000,8.474799072265625,0.11382168255634605,0.020578093126416206,0.13467238207906485
1758447626245772000,8.48477197265625,0.17517894531674683,0.06943418623209,0.133698568610847
1758447626255745300,8.494745361328125,0.2195996132582426,0.033009704676270485,0.0869008693397045
1758447626265717000,8.504717041015626,0.25564832030422985,0.004823474633693695,0.047722412900626655
1758447626275690000,8.51468994140625,0.25786899202838537,0.032275545182824134,-0.005391337649524212
1758447626285663200,8.524663330078125,0.22974873989410696,0.07454524563550949,-0.01930266636312008
1758447626295635000,8.534635009765625,0.2077356455285102,0.10156769259572028,0.020743805082142353
1758447626305608000,8.54460791015625,0.2022762110788375,0.06853109991252422,0.04063625403195619
1758447626315581200,8.554581298828126,0.15764095053859054,-0.01983282771706581,0.0818038384616375
1758447626325554200,8.56455419921875,0.10027597228474915,-0.09262100055217742,0.09520634087026118
1758447626335526000,8.57452587890625,0.018268062618374825,-0.1442179167985916,0.11973930910229683
1758447626345499100,8.5844990234375,-0.048271059759333726,-0.1521475407540798,0.19489158072024582
1758447626355472100,8.59447216796875,-0.10798223581314086,-0.12361936540603637,0.28801000940054655
1758447626365445000,8.604445068359375,-0.13469547069370746,-0.12769465202093125,0.3601014321431517
1758447626375417000,8.6144169921875,-0.11695113968849181,-0.18679682933092115,0.36628888860642905
1758447626385390000,8.62439013671875,-0.08132160790264606,-0.22331483438909053,0.3332029038235545
1758447626395363000,8.634363037109376,-0.05904021798968315,-0.16608780330121517,0.3205708012655377
1758447626405336000,8.644336181640625,-0.07500226868800819,-0.11550795514285564,0.2852668481722474
1758447626415308000,8.65430810546875,-0.08086853037290274,-0.07341770291030407,0.2828197472810745
1758447626425281000,8.664281005859374,-0.0708229371767491,-0.050423780813813206,0.28743104046881196
1758447626435254000,8.67425390625,-0.04619827207326889,-0.08248714455068111,0.2753235463067889
1758447626445226000,8.68422607421875,0.02596153973042965,-0.1326934832215309,0.2715717925578356
1758447626455199000,8.694198974609375,0.08544241415970028,-0.1350292326927185,0.2695347337722778
1758447626465172000,8.704171875,0.13913666801154612,-0.09548924946486949,0.2644321499362588
1758447626475145200,8.714145263671876,0.1451420459061861,-0.04163724776804447,0.2720291809365153
1758447626485117000,8.724116943359375,0.12386135746836661,-0.015604980888962745,0.2709361250028014
1758447626495090000,8.73408984375,0.09732114106714725,-0.0027168577432632444,0.2805804439216852
1758447626505063200,8.744063232421874,0.061170800277590746,-0.059596682828664774,0.2992851443916559
1758447626515036200,8.7540361328125,0.042903833637759084,-0.13319208039343355,0.3137064684540033
1758447626525008000,8.7640078125,0.06019289515614509,-0.16304302877783775,0.2959989623278379
1758447626534981000,8.773981201171875,0.04776595978140831,-0.1551110667347908,0.2722299642056227
1758447626544954000,8.7839541015625,-0.005883285884931683,-0.12799918792545795,0.2504065471932292
1758447626554927000,8.793927001953126,-0.0506600007224828,-0.13199030338823795,0.2282940841063857
1758447626564899000,8.803899169921875,-0.1007698202162981,-0.11531740100681781,0.19941548788547514
1758447626574872000,8.8138720703125,-0.12676643126010895,-0.09892799174189568,0.20935762070715427
1758447626584845000,8.823844970703124,-0.11573716078884899,-0.09048457304537295,0.18212153099626302
1758447626594817300,8.8338173828125,-0.10278240214772522,-0.06442892529070376,0.20056758053004742
1758447626604790000,8.8437900390625,-0.09392631099708378,-0.04261398384571075,0.22262363725453613
1758447626614763000,8.853762939453125,-0.02584989604949951,-0.08854220680594443,0.19519874697327613
1758447626624736000,8.863736083984374,0.03006904811449349,-0.13056874615252018,0.14641922623515127
1758447626634708200,8.873708251953126,0.09745565416701138,-0.10386837075352669,0.1020227428868413
1758447626644681000,8.883680908203125,0.09898242534287273,-0.07006020917594433,0.08940729920268058
1758447626654654000,8.893654052734375,0.08136318202205002,-0.019581483304500578,0.12276274857670068
1758447626664626200,8.903626220703124,0.07786657207794487,0.003242342922091484,0.17512129684537647
1758447626674599200,8.91359912109375,0.08790624698996544,-0.023929741641879082,0.21146657568514346
1758447626684572000,8.923572021484375,0.12161262869350611,-0.09508534483909606,0.22320202166438102
1758447626694545200,8.933545166015625,0.14349771276526152,-0.12006021161973476,0.21450842759907243
1758447626704517000,8.94351708984375,0.11477554921507835,-0.05648994898498058,0.23835282904505728
1758447626714489900,8.95348974609375,0.09121814801692962,0.004492635244131088,0.2690647781729698
1758447626724463000,8.963463134765625,0.04923720137774944,-0.028801731592416762,0.28453941068053246
1758447626734436000,8.97343603515625,0.056031610758230085,-0.08841536555588245,0.2845549005106091
1758447626744408000,8.983407958984374,0.0842659177262336,-0.13425649475455284,0.23879969602972267
1758447626754381000,8.993381103515626,0.09478599656634032,-0.14059446560442446,0.16262188075631856
1758447626764354000,9.00335400390625,0.0793458508502692,-0.11436463032662868,0.12035627195686101
1758447626774326000,9.013325927734375,0.0301899710804224,-0.1003249990582466,0.0807163354858756
1758447626784299000,9.023299072265624,-0.016923077750205993,-0.10877543201744556,0.05133680400550365
1758447626794272000,9.03327197265625,-0.05643149679601192,-0.1210690964013338,0.06397036786824464
1758447626804245000,9.043244873046875,-0.0707054482769221,-0.09489011452794074,0.11410977878272532
1758447626814217200,9.05321728515625,-0.04470715673267841,-0.0769324330329895,0.12582593553960322
1758447626824190200,9.063190185546874,0.05510587421543896,-0.06460545090138912,0.11899024430066346
1758447626834163000,9.073162841796876,0.14276253035850822,-0.04643617248237133,0.11637129397392272
1758447626844136000,9.083135986328125,0.175350210230425,0.003572597789764404,0.12755553581118584
1758447626854108200,9.093108154296875,0.13455284735262393,0.048048868376016615,0.15291940190941095
1758447626864081200,9.1030810546875,0.09933649947755038,0.009781389302015305,0.21015169369429348
1758447626874054000,9.113053955078126,0.09529109654426574,-0.05390227057933807,0.2527209616154432
1758447626884026000,9.123026123046875,0.1310562374085188,-0.10298223556876182,0.2666749604269862
1758447626893999000,9.1329990234375,0.1746960571706295,-0.1032271502405405,0.28899200617522
1758447626903972000,9.14297216796875,0.18194770879931746,-0.0786187786847353,0.3010229279696941
1758447626913944800,9.15294482421875,0.1828963878262788,-0.07617781527340411,0.28435382498055695
1758447626923917000,9.1629169921875,0.17245733833312987,-0.08195756771862506,0.2538151865929365
1758447626933890000,9.17289013671875,0.14004275000579655,-0.10222761780917644,0.22243074503093957
1758447626943863000,9.182863037109374,0.08969663753807544,-0.09084931470453739,0.1827452158525586
1758447626953835000,9.1928349609375,0.03466558212451636,-0.06051672028303146,0.17189765862375497
1758447626963808000,9.20280810546875,-0.03513334576673806,-0.056927171358466144,0.16994652455598114
1758447626973781000,9.212781005859375,-0.09725684365928172,-0.06701485013067722,0.16915946583151817
1758447626983754200,9.222754150390625,-0.13069675644636153,-0.10141220977306366,0.17985124797672034
1758447626993726000,9.232725830078126,-0.13398235398828984,-0.1122591824799776,0.18014643153101204
1758447627003699000,9.242698974609375,-0.1245019203942269,-0.10771101765632629,0.1700204665750265
1758447627013672200,9.252672119140625,-0.1143593696296215,-0.10058452677726745,0.18600334086567163
1758447627023644000,9.262643798828124,-0.09605331308841705,-0.1001028807401657,0.22214111443459986
1758447627033617000,9.272616943359376,-0.051741877675056454,-0.0950923591017723,0.2581456170126796
1758447627043590100,9.282590087890625,-0.0075946198474615804,-0.08767594536542891,0.2851286087453365
1758447627053562000,9.29256201171875,0.016523922364786267,-0.08246025654375552,0.29197978981435296
1758447627063534300,9.302534423828124,0.030868016472458838,-0.08818857106268406,0.26882746228575705
1758447627073507000,9.312507080078126,0.03621872985064983,-0.10578969420492648,0.26577070506364103
1758447627083480000,9.32247998046875,0.013943769678473472,-0.12101181325614452,0.22502572996020315
1758447627093452300,9.332452392578125,0.04804762626700103,-0.12515958058536053,0.15988544152975082
1758447627103425300,9.34242529296875,0.07363163792192935,-0.09505904135406017,0.10767214695066213
1758447627113398000,9.35239794921875,0.07660159364342689,-0.07767594487667083,0.04090571862310171
1758447627123371000,9.36237109375,0.08503112994506955,-0.05810147583484649,-0.007736731731891632
1758447627133343200,9.37234326171875,0.06112988374531269,-0.0018149404674768447,-0.01943506057113409
1758447627143316200,9.382316162109374,0.0570469983458519,0.04016191451847553,0.024117957690358162
1758447627153289000,9.3922890625,0.04971059104315936,0.020436638829112053,0.07828618572950363
1758447627163261200,9.40226123046875,0.0805010122347623,-0.018300795844197273,0.1195224514812231
1758447627173234200,9.412234130859375,0.14780103598237038,-0.030553543695807456,0.14781418772488833
1758447627183207200,9.422207275390624,0.19256671796925365,-0.027828502646088597,0.169819975566864
1758447627193180200,9.43218017578125,0.21536058744899927,-0.023950784429907796,0.15452303771376608
1758447627203152100,9.442152099609375,0.18037585637271403,-0.03145487644970417,0.15243804813325404
1758447627213125000,9.452125,0.09058160367906093,-0.07728899138569831,0.13607728044092654
1758447627223098400,9.462098388671874,-0.002562617029622197,-0.12744155404269694,0.11712620399445295
1758447627233070000,9.472070068359375,-0.04366086255013942,-0.13397943137884138,0.09966507384479045
1758447627243043000,9.48204296875,-0.05807400330603122,-0.10382979230880737,0.08722878611981869
1758447627253016300,9.492016357421875,-0.06956095441691577,-0.11202478920221329,0.10072481203079223
1758447627262989300,9.5019892578125,-0.09191073339097201,-0.10419804109930991,0.1203042495086789
1758447627272961000,9.5119609375,-0.10816219548992811,-0.09843290170133114,0.1600116982579231
1758447627282934300,9.521934326171875,-0.1463309634298086,-0.09604746786952018,0.22520196330994366
1758447627292907300,9.5319072265625,-0.13621515454165636,-0.10757014788091182,0.2623369312226772
1758447627302879000,9.54187890625,-0.07342705526053905,-0.098399583953619,0.2789461207181215
1758447627312852200,9.551852294921876,-0.005144961673021317,-0.11275719512999056,0.25811113022118803
1758447627322825200,9.5618251953125,0.038131285473704334,-0.09492518584132194,0.27017770785093304
1758447627332798200,9.571798095703125,0.05658573750965297,-0.08065116129517555,0.29422493839263913
1758447627342770200,9.581770263671874,0.05438216305077076,-0.090896660977602,0.29652298620194195
1758447627352743200,9.5917431640625,0.022422186623141167,-0.14238836328387258,0.299165609665215
1758447627362716200,9.601716064453125,0.04396422941088676,-0.15754969205856323,0.28549539623111486
1758447627372688400,9.6116884765625,0.0912754311621189,-0.12475333787202834,0.256330092023313
1758447627382661000,9.6216611328125,0.15491700546741485,-0.0704360567510128,0.19571897145509717
1758447627392634000,9.631634033203126,0.1850660600155592,0.0032329905718564986,0.14081629166156054
1758447627402607000,9.641607177734375,0.16030169418044388,0.03201894007325172,0.11217559584975242
1758447627412579300,9.651579345703125,0.0794464616805315,0.009190437671542167,0.10527093102782964
1758447627422552000,9.661552001953124,0.030026304951310156,-0.032848376634716986,0.08545973062068224
1758447627432525000,9.671525146484376,0.05600245772898197,-0.06731003368496895,0.04413812467306852
1758447627442497300,9.681497314453125,0.08161211528182029,-0.06674655458331108,-0.0036149756267666814
1758447627452470000,9.691469970703125,0.07978197724521159,-0.06029167935550212,-0.04489624956399202
1758447627462443000,9.701443115234374,0.06920512671656906,-0.01037935519516468,-0.023964812955260276
1758447627472416300,9.711416259765626,0.020010010914877054,0.03150923698544502,0.02431055765300989
1758447627482388200,9.72138818359375,-0.024607713968679307,0.005701426512002944,0.06207739372849464
1758447627492361000,9.73136083984375,-0.0247872352540493,-0.058717561906576156,0.11232932510673999
1758447627502334200,9.741334228515624,0.018830957198143004,-0.12119243052005767,0.13655191221535204
1758447627512306200,9.75130615234375,0.0899725318700075,-0.1418827518492937,0.14312106147259473
1758447627522279200,9.761279052734375,0.11803192066252231,-0.1363625271230936,0.13345453072190283
1758447627532252200,9.771252197265625,0.09773673613071442,-0.10289689537286757,0.12262217106223106
1758447627542224100,9.78122412109375,0.061710313981771465,-0.050887891194224356,0.0867144068568945
1758447627552197000,9.791197021484376,0.03824117558896541,0.005614332750439643,0.08643266730606555
1758447627562170400,9.80117041015625,0.06831314631290733,0.028045360267162322,0.08438450260460376
1758447627572143000,9.81114306640625,0.08743870254345237,0.04229074324071407,0.08929565552175045
1758447627582115000,9.821114990234374,0.0709329734224826,0.042998599249124525,0.09013298312872647
1758447627592088300,9.83108837890625,0.07410217804312706,-0.017605214795470236,0.12659049017131327
1758447627602061300,9.841061279296875,0.02898644050955772,-0.029392683222889897,0.18613894994407892
1758447627612033000,9.851032958984375,-0.003291442760825157,-0.0905482859313488,0.25503420699387785
1758447627622006300,9.86100634765625,-0.021945289826393127,-0.1717120729237795,0.3090785163924098
1758447627631979300,9.870979248046876,0.014599091782048344,-0.2173947966903448,0.31876287506073714
1758447627641952300,9.8809521484375,0.021038111853599547,-0.1830003596574068,0.3307192703142762
1758447627651924200,9.89092431640625,0.0038490766435861586,-0.12514847466945647,0.31110213117450475
1758447627661897200,9.900897216796874,-0.03158997407145798,-0.13262977033555506,0.2761389543429017
1758447627671870200,9.9108701171875,-0.04371989926099777,-0.17447276980876922,0.230880301207304
1758447627681842200,9.92084228515625,-0.09637304656207561,-0.18497545912265775,0.19269962363392112
1758447627691815200,9.930815185546875,-0.10516082171685993,-0.13461480667293071,0.17346709989756345
1758447627701788200,9.9407880859375,-0.08509053198210895,-0.061770519736409187,0.11358400134295224
1758447627711760400,9.950760498046876,-0.005025207750871777,-0.030617256581783294,0.03766600604951381
1758447627721733000,9.960733154296875,0.06419855060093105,0.0024099837511777876,-0.028923019884526727
1758447627731706000,9.9707060546875,0.08634732711017132,0.05597323163449764,-0.01170914249420166
1758447627741679000,9.98067919921875,0.08767937943153083,0.0817424636632204,0.05743073696643114
1758447627751651300,9.9906513671875,0.12543079874217508,0.02811901002526283,0.11886048044115305
1758447627761624000,10.0006240234375,0.25606493828110394,-0.02758534153997898,0.1276417527899146
1758447627771597000,10.01059716796875,0.38319852235317226,-0.046831893801689145,0.07788257336467504
1758447627781569300,10.0205693359375,0.404143110704422,-0.038247605329751966,0.04324848235696554
1758447627791542300,10.030542236328126,0.366300652109459,-0.011890928801894187,-0.002787584891915321
1758447627801515000,10.040514892578125,0.2610411923237145,0.026163784304261205,-0.010590367597341537
1758447627811487200,10.0504873046875,0.14125848247110842,0.018235329392552374,0.03936813379228115
1758447627821460200,10.060460205078124,0.05204414855726063,-0.04261339932382106,0.08778934261202812
1758447627831433200,10.07043310546875,0.015538345393538475,-0.08238251513242721,0.12219137842953204
1758447627841406200,10.08040625,0.029124972197413442,-0.1013017351359129,0.12849720057547093
1758447627851378200,10.090378173828125,0.018972411495447157,-0.09789280347526073,0.11662322290837764
1758447627861351200,10.10035107421875,0.033928646152094004,-0.08131050198674201,0.10678834985345602
1758447627871324200,10.11032421875,-0.003312412483617663,-0.028020225825905798,0.11716536696106195
1758447627881296100,10.120296142578125,-0.029023776845261452,-0.04291209000945091,0.13691256222128867
1758447627891269000,10.13026904296875,-0.04036708170175552,-0.08342354861795902,0.13330869251042604
1758447627901242400,10.140242431640624,0.01798179302290082,-0.08076338949799537,0.10131605592221021
1758447627911214000,10.150214111328125,0.04452836609967053,-0.08683014219105244,0.04544482335746288
1758447627921187000,10.16018701171875,0.051942368683218956,-0.08830196830928325,0.028666999296844003
1758447627931160300,10.170160400390625,0.020555881294608114,-0.09419862513244151,0.000673076955974102
1758447627941133300,10.18013330078125,-0.035032734936475754,-0.1012011973708868,0.02200228071063757
1758447627951105000,10.19010498046875,-0.09037760553956031,-0.08918050470948219,0.0833612970367074
1758447627961078300,10.200078369140625,-0.1401917300224304,-0.09759703539907932,0.1453486743941903
1758447627971051300,10.21005126953125,-0.13236900050751865,-0.09552432077825068,0.2185316917657852
1758447627981023000,10.22002294921875,-0.007362053200602531,-0.08765431805551052,0.2501549105197191
1758447627990996200,10.229996337890626,0.10443477246463298,-0.046966333836317056,0.26323797171562907
1758447628000969200,10.23996923828125,0.17965638299174605,-0.011427987465262412,0.2580094234123826
1758447628010941200,10.249941162109375,0.21120595198757947,0.03107493722140789,0.2831596467599273
1758447628020914200,10.2599140625,0.2068675574570894,0.05415770664513111,0.30830285584479566
1758447628030887200,10.26988720703125,0.16987718564681709,0.034900048467516896,0.33042847067415715
1758447628040860200,10.279860107421875,0.15396248122155665,-0.03559212238490581,0.35124154160022736
1758447628050833000,10.2898330078125,0.1978572255928069,-0.11527297734320163,0.32039778278619047
1758447628060806100,10.29980615234375,0.27045827835798264,-0.1584001714080572,0.27351795818954705
1758447628070779000,10.30977880859375,0.2974385666768998,-0.15160042826533315,0.19969605839252472
1758447628080750800,10.319750732421875,0.2294552368402481,-0.06629647272825241,0.16784838323295115
1758447628090724000,10.32972412109375,0.09220248287916183,-0.01596738446056843,0.1416524502247572
1758447628100697000,10.339697021484374,-0.02952069351673126,-0.04111000902354717,0.13037147001475094
1758447628110668800,10.349668701171876,-0.12659743136875332,-0.10330839878320694,0.1053881276667118
1758447628120642000,10.35964208984375,-0.17383680999279022,-0.17360943097770212,0.08062778041958808
1758447628130615000,10.369614990234375,-0.1917231067519635,-0.16162556319534777,0.11045622471123934
1758447628140588000,10.379588134765624,-0.20826273814253507,-0.113562081772089,0.13389146083444356
1758447628150560000,10.38956005859375,-0.21133732328228652,-0.043371524214744564,0.1730380608305335
1758447628160533000,10.399532958984375,-0.22519984441809354,-0.029138416200876233,0.22458529271632433
1758447628170506000,10.409506103515625,-0.198458552486822,-0.04922375737428665,0.25042671319842336
1758447628180478000,10.41947802734375,-0.1250157882004976,-0.09660919340550898,0.24054274030476808
1758447628190451000,10.429450927734376,-0.01768178716301918,-0.11898995203971863,0.19247838209867477
1758447628200424000,10.439423828125,0.10200834903530775,-0.07877016985416412,0.14068886588960886
1758447628210396000,10.44939599609375,0.1679032552253455,-0.05040332254767418,0.12370616690665483
1758447628220369000,10.459368896484374,0.17174897086806595,-0.04396072227954864,0.11835574578940868
1758447628230342000,10.469341796875,0.1463707109183073,-0.055559974658489227,0.14842062918543814
1758447628240314000,10.479314208984375,0.08788929585516453,-0.06753098295927047,0.16208382835686205
1758447628250286800,10.489286865234375,0.06833820768892765,-0.10640402671098709,0.20159780036062
1758447628260259800,10.499259765625,0.06371873119473458,-0.07843348524570465,0.24097587102502582
1758447628270232800,10.50923291015625,0.08028232798278331,-0.09529694176316261,0.21696049692630767
1758447628280205000,10.519205078125,0.07897877110354602,-0.0937421135365963,0.12969254783988
1758447628290177800,10.529177734375,0.03323876419179141,-0.05727671544849872,0.020910978342592715
1758447628300150800,10.53915087890625,-0.0374100585270673,-0.0517792870759964,-0.08535568572431802
1758447628310123000,10.549123046875,-0.10215046091973781,-0.035657004314661025,-0.11760142029076814
1758447628320096000,10.559095947265625,-0.15621932023763654,-0.00537701686322689,-0.07466098096966743
1758447628330068700,10.56906884765625,-0.17705109586417675,-0.021330957320332525,0.008234159860014915
1758447628340041000,10.579041015625,-0.05964936286397278,-0.08029927911758422,0.08324147004932164
1758447628350014000,10.589013916015626,0.07892097650170325,-0.10595745198726654,0.11817892791777848
1758447628359987000,10.598987060546875,0.1851303574234247,-0.07005085682570934,0.13081015369296073
1758447628369959000,10.608958984375,0.19584289009571074,-0.041354339173436165,0.15564678104668855
1758447628379932000,10.618931884765624,0.1668529424548149,-0.008069909209012984,0.15757570328265427
1758447628389905000,10.62890478515625,0.16123678307346997,0.005844634374976158,0.16812223173826932
1758447628399876900,10.638876953125,0.17210772117786108,0.023583704683184624,0.16323416743576527
1758447628409849900,10.648849853515625,0.18125914201326668,0.018688333857059477,0.13375760532170533
1758447628419822800,10.65882275390625,0.17174422162771225,-0.044212066692113874,0.0980877415254712
1758447628429796000,10.668796142578126,0.11140344243347644,-0.10187164397835731,0.08505757956057787
1758447628439767800,10.678767822265625,0.00905314809270203,-0.10947159758806228,0.13398790694624185
1758447628449740800,10.68874072265625,-0.03329020211808383,-0.08854512941539287,0.19072189382016658
1758447628459714000,10.698714111328124,-0.03750518946461379,-0.0894154825091362,0.21170769096463918
1758447628469686000,10.70868603515625,-0.02803301224224269,-0.10373451524078846,0.21166560538858173
1758447628479658800,10.71865869140625,0.01758767913877964,-0.12071253804862499,0.21015607760846614
1758447628489632000,10.728632080078125,0.03472060024738312,-0.10523790554106235,0.18554186083376406
1758447628499604000,10.73860400390625,0.055188876323774456,-0.0830190594702959,0.17613047388792036
1758447628509577000,10.748576904296876,0.07867021661102772,-0.04022971905767917,0.16339344965070485
1758447628519550000,10.758550048828125,0.0531072477441281,-0.0396580566495657,0.12607260377705096
1758447628529522000,10.76852197265625,0.018180968856811523,-0.0844219120055437,0.08171352982968091
1758447628539495000,10.778494873046874,-0.049769043232128024,-0.10851531977653503,0.09405074109435081
1758447628549468200,10.78846826171875,-0.10762268178574741,-0.09132394647896289,0.13249386899620294
1758447628559441000,10.79844091796875,-0.15031440704278648,-0.09468144021332263,0.19415654444396493
1758447628569412900,10.808412841796875,-0.125991866691038,-0.1256535015821457,0.21481559385210275
1758447628579386000,10.81838623046875,-0.0511561867415905,-0.14566636204123495,0.2116977540925145
1758447628589359000,10.828359130859376,-0.03330247707776725,-0.1377571963518858,0.2045963976547122
1758447628599330800,10.838330810546875,-0.04082651590704918,-0.11678571999371051,0.2072387288570404
1758447628609304000,10.848303955078125,-0.05866911965496838,-0.10678396593928337,0.22470833457410333
1758447628619277000,10.858277099609374,-0.06378185955882072,-0.09491934062242507,0.25120821896493434
1758447628629248800,10.868248779296875,-0.035270050823688504,-0.10811375323832034,0.274353532230854
1758447628639222000,10.878221923828125,-0.0029565117180347443,-0.10096329696178435,0.28999475347697734
1758447628649195000,10.888195068359375,0.06222462017945945,-0.09623509939610958,0.31168840662986036
1758447628659166700,10.898166748046876,0.1288631112784147,-0.06952946330010891,0.28522914651036263
1758447628669140000,10.908139892578125,0.21677220781259238,-0.059473933231830596,0.2403337737292051
1758447628679113000,10.918113037109375,0.30336919883489605,-0.04219955782592296,0.17191227167099712
1758447628689085000,10.9280849609375,0.330033333876729,-0.026165537869930266,0.09202887987792491
1758447628699058000,10.938057861328126,0.3419184174597263,-0.012917933762073517,0.04582067093253135
1758447628709031000,10.948031005859375,0.3010580723483115,0.01790215191543102,0.04055822035968303
1758447628719004000,10.95800390625,0.2366441984962672,0.03814122234582901,0.08025485545396804
1758447628728976100,10.96797607421875,0.15564290858916938,0.019010405418276786,0.1215288228675723
1758447628738948900,10.977948974609374,0.13659458231329918,-0.027329320952296256,0.16265198363363742
1758447628748921900,10.987921875,0.13906177614443002,-0.0443371543765068,0.15710720898807048
1758447628758894000,10.99789404296875,0.13570201738774776,-0.026104747593402863,0.12621756520569324
1758447628768867000,11.0078671875,0.11448920655436813,-0.016126958936452863,0.09759674313813448
1758447628778839800,11.01783984375,0.06257014568150043,-0.026535540226101873,0.10575111576020717
1758447628788812000,11.02781201171875,0.022037644284963607,-0.03005260843634605,0.13824702569544314
1758447628798785000,11.037784912109375,0.02228840417563915,-0.06085282036960125,0.17299100681841373
1758447628808758000,11.047758056640625,0.07479483648240566,-0.10570143139958381,0.18884499403238295
1758447628818730000,11.05772998046875,0.16228431936502455,-0.12241875744462012,0.14547756147086618
1758447628828703000,11.067702880859375,0.18443302280902862,-0.09178513424992561,0.1087169798284769
1758447628838676000,11.077676025390625,0.1481008957117796,-0.08522504508197307,0.07970686618238687
1758447628848648000,11.08764794921875,0.08556465229988097,-0.06113105278909206,0.08547025201469659
1758447628858621000,11.097620849609376,0.0032675504285842177,-0.033355157113075254,0.11518003836274146
1758447628868594000,11.107593994140625,-0.03973806308321655,-0.04927753338813781,0.13666472494006157
1758447628878567000,11.11756689453125,-0.03478255956768989,-0.0890665229409933,0.15172785403728484
1758447628888539000,11.127538818359374,-0.017460253366827962,-0.08096095789670944,0.15694792677313088
1758447628898512000,11.137511962890626,0.00009184300191700458,-0.03350713280439377,0.14153408454209565
1758447628908484900,11.14748486328125,-0.040265301827713845,0.013188567396998405,0.13901684102416037
1758447628918457000,11.15745703125,-0.1049520012717694,0.04405716839134693,0.1476122354120016
1758447628928429800,11.167429931640624,-0.14438918171226978,0.040865094351768494,0.18933774598538874
1758447628938402800,11.17740283203125,-0.19174699908420442,0.02152034241259098,0.27805677066296336
1758447628948375000,11.187375,-0.20941958002746103,-0.021463059267401694,0.3714981476873159
1758447628958348000,11.19734814453125,-0.18862229119241236,-0.08062894946336746,0.44627749433964486
1758447628968320800,11.20732080078125,-0.08410451661944389,-0.1091004261881113,0.4739733105167746
1758447628978293000,11.21729296875,0.04231646220386028,-0.07463058583140372,0.4437511907324195
1758447628988266000,11.227265869140625,0.13876264706738292,-0.016900865918397904,0.3856748493388295
1758447628998239000,11.237239013671875,0.19406309400685132,0.18102935184538363,0.4163116874039173
1758447629008211000,11.2472109375,0.2635784557163715,0.20724340503215788,0.3039323856756091
1758447629018184000,11.257183837890626,0.4251671209674328,-0.29580022488534446,-0.0941857656508684
1758447629028157000,11.267156982421875,0.4331780665308237,-0.6425994001239538,-0.22849983581155536
1758447629038129000,11.27712890625,0.3169482268542051,-0.7343202369660139,-0.22007044564038514
1758447629048102000,11.287101806640624,0.09894560046382248,-0.35170682102441786,0.015477262856066227
1758447629058074000,11.29707421875,-0.008871800176426768,0.08874094424843787,0.3064174804896116
1758447629068046300,11.30704638671875,0.04268704908192158,0.21902152110934256,0.4890405312672257
1758447629078019300,11.317019287109375,0.18378595707714557,0.02781798125207424,0.565301933170855
1758447629087992000,11.326991943359374,0.11774265539236366,-0.19080255784094333,0.7099059266775846
1758447629097965300,11.33696533203125,-0.1168558626204729,0.05856149456202984,0.8940271070584654
1758447629107937300,11.346937255859375,-0.15047354312725364,0.3847416601419449,0.8138432710140943
1758447629117910300,11.35691015625,-0.02367839722931385,0.3473696686029434,0.493861083291471
1758447629127883300,11.36688330078125,0.0618476035606116,0.16089315726757047,0.07595248208492994
1758447629137855200,11.376855224609375,-0.00007014262676239014,-0.02664718390703201,-0.23717180256694553
1758447629147828200,11.386828125,-0.19782975306399164,-0.26323884849846363,-0.44952918961197136
1758447629157801500,11.396801513671875,-0.461937712547183,-0.4893798462241888,-0.5702864435851573
1758447629167773200,11.406773193359374,-0.6598872195333242,-0.5808376482158899,-0.6014145722985267
1758447629177746200,11.41674609375,-0.8441623483669012,-0.45389702943265436,-0.45827831325680013
1758447629187719400,11.426719482421875,-0.9622480450432747,-0.2560328626424074,-0.2305401094675064
1758447629197691100,11.436691162109375,-1.0735106907665728,0.0702969405412674,0.019188684594631192
1758447629207664000,11.4466640625,-1.123384436482191,0.28538521385490895,0.265602947281301
1758447629217637400,11.456637451171876,-1.0295926385849714,0.27988369382917877,0.4344248517215252
1758447629227609300,11.466609375,-0.8496189332723617,0.21968729154169558,0.5776832758381962
1758447629237582000,11.47658203125,-0.5728250221520662,0.08548165019154548,0.7163511572942137
1758447629247555300,11.486555419921874,-0.3228817816216498,-0.0785837073713541,0.8149614613890648
1758447629257527300,11.49652734375,-0.16356266873776912,-0.21523148117661475,0.8839718692511319
1758447629267500300,11.506500244140625,-0.058818099671602245,-0.3198468709051609,0.9276710179850458
1758447629277473300,11.516473388671875,0.01712418981287628,-0.358940863931179,0.9599141222029924
1758447629287445200,11.5264453125,0.07106682893522083,-0.3343015127152204,0.9322630219504237
1758447629297418200,11.536418212890625,0.11629826527033,-0.2752864291667938,0.8540475633695721
1758447629307391500,11.5463916015625,0.12149579738080502,-0.18073183020353317,0.775193514624238
1758447629317363200,11.55636328125,0.03385956297125667,-0.05634674112200737,0.780637459243834
1758447629327336200,11.566336181640626,-0.09315587461385876,-0.003611760756373405,0.8044619869455695
1758447629337309400,11.576309326171875,-0.19568978189323097,-0.051748891937732695,0.8843272585600614
1758447629347281200,11.58628125,-0.28425241043269633,-0.038811084431409834,1.0389712923049925
1758447629357254100,11.596254150390624,-0.3647539706567302,-0.10461597425043583,1.1191557128712535
1758447629367227400,11.606227294921876,-0.4425572682401165,-0.3281201937317848,1.1388745588198304
1758447629377200400,11.616200439453126,-0.5395458163520321,-0.5414601620733738,1.148860530783236
1758447629387172000,11.626172119140625,-0.6217477507531642,-0.6469207704544067,1.1852163310170174
1758447629397145300,11.636145263671875,-0.660312751469016,-0.7010901675373316,1.1791416872784495
1758447629407118300,11.646118408203124,-0.7014765365064144,-0.7408329798609018,1.2245251358374953
1758447629417090300,11.65609033203125,-0.6600491320967674,-0.7767723082482815,1.2803352858647703
1758447629427063300,11.666063232421875,-0.5914011278063058,-0.7010375605672597,1.3327233524888753
1758447629437036300,11.676036376953125,-0.48843584337234497,-0.5633505068421364,1.3558859091505409
1758447629447008300,11.68600830078125,-0.3927390886366367,-0.49002574291229245,1.2758379744455217
1758447629456981500,11.6959814453125,-0.279265835925471,-0.48493221916556356,1.1440014003142713
1758447629466954200,11.705954345703125,-0.15882979499697683,-0.5057698400110006,0.9270984787940978
1758447629476926200,11.71592626953125,-0.21005731167541816,-0.5656862563133239,0.6424407024309039
1758447629486899500,11.7258994140625,-0.33670682029128074,-0.6373445483356713,0.33262451941370963
1758447629496872200,11.7358720703125,-0.4967758016943931,-0.6573854658454656,0.1633329516351223
1758447629506844200,11.74584423828125,-0.6558008270025253,-0.6182149004518985,-0.020677461847662924
1758447629516817400,11.7558173828125,-0.7805706045527011,-0.514997102561593,-0.13137246375083922
1758447629526790400,11.765790283203126,-0.8299159424800425,-0.41102936308681964,-0.1246288347095251
1758447629536762000,11.77576220703125,-0.6959633991081268,-0.3571212472885847,-0.2221548506990075
1758447629546735400,11.7857353515625,-0.5750188058692962,-0.3377835096120834,-0.42103140940219164
1758447629556708400,11.795708251953124,-0.44309448038935656,-0.4054161993801594,-0.630349574881792
1758447629566680300,11.805680419921876,-0.27347214628644284,-0.33820904154777526,-0.9199740337416529
1758447629576653300,11.8156533203125,-0.09117372435331345,-0.1830576428025961,-1.3612033047810197
1758447629586626300,11.825626220703125,0.5649344150327146,0.006733107647299766,-1.7747908279180526
1758447629596598300,11.835598388671874,1.6356278564214706,0.39655017135739323,-1.5812158827543257
1758447629606571300,11.8455712890625,1.823818332067877,0.5077390942573548,-1.176736379702389
1758447629616544300,11.855544189453125,1.4649170694947242,0.4453600872337818,-0.7052747597455978
1758447629626516200,11.86551611328125,1.0770165069304407,0.1584744056880474,-0.4705030040577054
1758447629636489500,11.875489501953124,0.06557867984771729,-0.08957505698502063,-0.2568570385068655
1758447629646462200,11.885462158203126,-1.0931005035080015,-0.4194394640356302,-0.13017740874737502
1758447629656434200,11.89543408203125,-1.4209905417457223,-0.8364508241415023,-0.27691666071712967
1758447629666407400,11.905407470703125,-1.3366671216785906,-1.0322913761496544,-0.38736820925325155
1758447629676380400,11.91538037109375,-0.7184957681074738,-1.0500070655822753,-0.2219631275191903
1758447629686352100,11.92535205078125,0.4482463101945817,-0.976698083743453,0.2656973475664854
1758447629696325400,11.935325439453125,0.9720882518604397,-0.8390197978466749,0.6156278065681458
1758447629706298400,11.94529833984375,0.6556067657351493,-0.6023568215847015,0.9565332475930451
1758447629716270300,11.955270263671874,-0.06361264047175645,-0.22059622308015822,1.3140338495880364
1758447629726243300,11.965243408203126,-1.3999381091058254,0.16915888130962847,1.2369380426868795
1758447629736216300,11.97521630859375,-1.9730816956877708,0.547865937462449,0.8232660561367869
1758447629746188300,11.985188232421875,-1.5420964630261063,0.9953858330786227,0.5308052048072218
1758447629756161300,11.995161376953124,-0.5876616490170359,0.9724930332690477,-0.32459523447602984
1758447629766134300,12.00513427734375,0.10030746340155601,0.8229390161395073,-0.9636332888565957
1758447629776106200,12.015106201171875,0.5209770537540316,0.6379191333532332,-1.0139378272049129
1758447629786079500,12.02507958984375,0.5583876237377524,0.47344753307700155,-0.5981140694484114
1758447629796052200,12.03505224609375,0.5234212320357561,0.35114334192276,0.06044584700390696
1758447629806025200,12.045025146484376,1.552266559384763,0.07060673714280129,0.44870939766168594
1758447629815997400,12.05499755859375,2.513347095018625,-0.27854630774557587,0.6598192688636482
1758447629825970400,12.064970458984375,1.8788973913416265,-0.32233810319900513,0.8366320259273051
1758447629835943200,12.074943115234374,-0.9105135469570755,-0.317961203289032,0.5652706612497568
1758447629845915400,12.084915283203125,-3.1478871073275805,-0.5372545270770788,-0.03284267754629254
1758447629855888400,12.094888427734375,-2.9910134148344394,-1.0152204143613577,-0.7705455426879226
1758447629865861400,12.104861328125,-1.9476962022796271,-1.25908411578238,-1.1250117454230786
1758447629875833300,12.114833251953126,-1.0136465891733766,-1.0699480298489332,-0.9002166093483567
1758447629885806300,12.124806396484376,-0.3888292217165231,-0.6799433346122503,-0.6497959605645388
1758447629895779300,12.134779296875,0.43361236629486083,-0.26662147667407987,-0.5498791769810021
1758447629905751300,12.144751220703125,0.9859235927283764,0.22205986589193344,-0.40738114277757703
1758447629915724300,12.154724365234374,0.7812140900880098,0.5439671764582396,-0.17805040909983216
1758447629925697300,12.164697265625,0.5454179597884417,0.43323184254467484,-0.22566373560279607
1758447629935669500,12.17466943359375,0.598721095430851,0.07399170340597629,-0.12889248350337146
1758447629945642200,12.184642333984375,0.07734569000899791,-0.36736265531778334,-0.20344843319598585
1758447629955615200,12.194615234375,-0.669468117827177,-0.7311451140612364,-0.4168923368360847
1758447629965587500,12.20458740234375,-1.3354793731987475,-0.7486036138623953,-0.6549525396101177
1758447629975560200,12.214560302734375,-1.0731833585083483,-0.4941027830928564,-0.5999741642318666
1758447629985533200,12.224533203125,-0.5872241343826056,-0.38040743032991886,-0.18391626892592758
1758447629995505400,12.23450537109375,-0.06462532464563846,-0.42419981030523773,0.21405664697727186
1758447630005478400,12.244478515625,-0.0408253468632698,-0.14655074366033077,0.5999693419262766
1758447630015451100,12.254451171875,-0.7752320930689572,0.013178046002984046,0.8875136335112154
