time,seconds_elapsed,z,y,x
1758447617777659400,0.016659423828125,-0.9473724365234375,-0.3309326171875,0.008026123046875
1758447617787631600,0.026631591796875,-1.0014801025390625,-0.3134002685546875,-0.001678466796875
1758447617797604400,0.036604248046875,-1.0459136962890625,-0.2882537841796875,0.0008392333984375
1758447617807577300,0.046577392578125,-1.0644073486328125,-0.263214111328125,0.0220489501953125
1758447617817550300,0.05655029296875,-1.05035400390625,-0.2502593994140625,0.0478973388671875
1758447617827523600,0.066523681640625,-1.019744873046875,-0.2512054443359375,0.06744384765625
1758447617837495300,0.076495361328125,-0.97015380859375,-0.260894775390625,0.0814971923828125
1758447617847468300,0.08646826171875,-0.92437744140625,-0.2777099609375,0.0920562744140625
1758447617857441500,0.096441650390625,-0.8818511962890625,-0.29632568359375,0.100677490234375
1758447617867414500,0.10641455078125,-0.8520660400390625,-0.3127899169921875,0.10137939453125
1758447617877386200,0.11638623046875,-0.83270263671875,-0.31805419921875,0.1020965576171875
1758447617887359500,0.126359375,-0.835601806640625,-0.3170318603515625,0.09869384765625
1758447617897332500,0.13633251953125,-0.8643951416015625,-0.3188934326171875,0.08941650390625
1758447617907305500,0.146305419921875,-0.9157562255859375,-0.3243560791015625,0.069976806640625
1758447617917278500,0.156278564453125,-0.965728759765625,-0.3173980712890625,0.053192138671875
1758447617927250400,0.16625048828125,-0.9921417236328125,-0.3121795654296875,0.0421905517578125
1758447617937223400,0.176223388671875,-0.9829559326171875,-0.311370849609375,0.0313873291015625
1758447617947196400,0.186196533203125,-0.9593658447265625,-0.3138885498046875,0.02349853515625
1758447617957169400,0.19616943359375,-0.950347900390625,-0.3209228515625,0.015106201171875
1758447617967142400,0.206142333984375,-0.9606170654296875,-0.32611083984375,0.0109100341796875
1758447617977114400,0.2161142578125,-0.970611572265625,-0.3301544189453125,0.0113067626953125
1758447617987087600,0.226087646484375,-0.9786376953125,-0.3314056396484375,0.015655517578125
1758447617997060600,0.236060546875,-0.97821044921875,-0.3227996826171875,0.0159454345703125
1758447618007033300,0.246033447265625,-0.9731597900390625,-0.3180999755859375,0.0117034912109375
1758447618017005600,0.256005615234375,-0.9870452880859375,-0.3185577392578125,0.006500244140625
1758447618026978600,0.265978515625,-1.0025177001953125,-0.3124237060546875,-0.0052032470703125
1758447618036951600,0.27595166015625,-1.0025634765625,-0.304901123046875,-0.0135955810546875
1758447618046924500,0.285924560546875,-0.98931884765625,-0.302490234375,-0.015380859375
1758447618056897300,0.295897216796875,-0.970794677734375,-0.3055572509765625,-0.0098114013671875
1758447618066869500,0.305869384765625,-0.9575653076171875,-0.310028076171875,-0.0054779052734375
1758447618076842500,0.315842529296875,-0.9516754150390625,-0.31097412109375,-0.0048675537109375
1758447618086815200,0.325815185546875,-0.941650390625,-0.3125,-0.006317138671875
1758447618096788500,0.33578857421875,-0.9283294677734375,-0.3162841796875,-0.01275634765625
1758447618106760400,0.345760498046875,-0.916168212890625,-0.3230743408203125,-0.0240020751953125
1758447618116733400,0.3557333984375,-0.903167724609375,-0.32818603515625,-0.03289794921875
1758447618126706400,0.36570654296875,-0.9020843505859375,-0.3416595458984375,-0.037017822265625
1758447618136679400,0.375679443359375,-0.9114837646484375,-0.3436737060546875,-0.0439453125
1758447618146652400,0.38565234375,-0.9228668212890625,-0.3284454345703125,-0.0433197021484375
1758447618156624600,0.395624755859375,-0.9277801513671875,-0.31036376953125,-0.035430908203125
1758447618166597400,0.405597412109375,-0.9283447265625,-0.2977294921875,-0.0221710205078125
1758447618176570400,0.4155703125,-0.9295806884765625,-0.292694091796875,-0.014251708984375
1758447618186543400,0.42554345703125,-0.927886962890625,-0.295013427734375,-0.018524169921875
1758447618196516600,0.4355166015625,-0.9279327392578125,-0.2986602783203125,-0.0213623046875
1758447618206488300,0.44548828125,-0.9361114501953125,-0.2982940673828125,-0.01806640625
1758447618216461300,0.45546142578125,-0.9511260986328125,-0.293701171875,-0.0136260986328125
1758447618226434600,0.4654345703125,-0.9550933837890625,-0.2837982177734375,-0.0126190185546875
1758447618236407600,0.475407470703125,-0.950042724609375,-0.28778076171875,-0.014739990234375
1758447618246379300,0.485379150390625,-0.9361572265625,-0.285797119140625,-0.01043701171875
1758447618256352500,0.4953525390625,-0.9235992431640625,-0.2782135009765625,-0.009368896484375
1758447618266325500,0.505325439453125,-0.929656982421875,-0.276580810546875,-0.006195068359375
1758447618276298500,0.515298583984375,-0.94195556640625,-0.2755889892578125,-0.0001983642578125
1758447618286270500,0.5252705078125,-0.9486846923828125,-0.275787353515625,0.0090179443359375
1758447618296243500,0.535243408203125,-0.9454803466796875,-0.2757720947265625,0.0133514404296875
1758447618306216400,0.545216552734375,-0.9309234619140625,-0.2787933349609375,0.0174102783203125
1758447618316189400,0.555189453125,-0.9110870361328125,-0.288238525390625,0.0134124755859375
1758447618326162700,0.56516259765625,-0.8976593017578125,-0.3070068359375,0.00323486328125
1758447618336134400,0.575134521484375,-0.8903350830078125,-0.31866455078125,-0.0040740966796875
1758447618346107400,0.585107421875,-0.8914794921875,-0.32293701171875,-0.00616455078125
1758447618356080600,0.59508056640625,-0.8988494873046875,-0.3171539306640625,-0.0024261474609375
1758447618366053600,0.6050537109375,-0.90386962890625,-0.3051605224609375,0.0018768310546875
1758447618376026400,0.6150263671875,-0.910980224609375,-0.2997283935546875,0.0011138916015625
1758447618385998600,0.62499853515625,-0.92291259765625,-0.2990570068359375,-0.0010986328125
1758447618395971600,0.6349716796875,-0.9330596923828125,-0.2915802001953125,-0.0051727294921875
1758447618405944600,0.644944580078125,-0.95037841796875,-0.2825775146484375,-0.0049285888671875
1758447618415917300,0.654917236328125,-0.9628448486328125,-0.2761383056640625,-0.0003204345703125
1758447618425889500,0.6648896484375,-0.971923828125,-0.26898193359375,0.0049896240234375
1758447618435862500,0.674862548828125,-0.980133056640625,-0.2657318115234375,0.0032196044921875
1758447618445835500,0.68483544921875,-0.9824371337890625,-0.2669525146484375,-0.003173828125
1758447618455808500,0.69480859375,-0.9752655029296875,-0.27197265625,-0.0055389404296875
1758447618465781500,0.704781494140625,-0.9669342041015625,-0.2791748046875,-0.0089111328125
1758447618475753500,0.71475341796875,-0.963165283203125,-0.28265380859375,-0.012176513671875
1758447618485726500,0.7247265625,-0.9628143310546875,-0.2899169921875,-0.01580810546875
1758447618495699500,0.734699462890625,-0.978668212890625,-0.298858642578125,-0.0189666748046875
1758447618505672400,0.74467236328125,-0.99658203125,-0.2936859130859375,-0.0187530517578125
1758447618515644700,0.754644775390625,-1.0096588134765625,-0.2901763916015625,-0.025604248046875
1758447618525617400,0.764617431640625,-1.0191192626953125,-0.288421630859375,-0.0289459228515625
1758447618535590400,0.77459033203125,-1.0157623291015625,-0.2779083251953125,-0.0204925537109375
1758447618545563400,0.7845634765625,-0.99212646484375,-0.27349853515625,-0.01513671875
1758447618555536400,0.794536376953125,-0.96746826171875,-0.277984619140625,-0.0105743408203125
1758447618565508400,0.80450830078125,-0.9552764892578125,-0.283233642578125,-0.0169677734375
1758447618575481300,0.8144814453125,-0.9501953125,-0.2891998291015625,-0.027313232421875
1758447618585454300,0.824454345703125,-0.947662353515625,-0.2992401123046875,-0.0367279052734375
1758447618595427600,0.834427490234375,-0.9432830810546875,-0.3045806884765625,-0.04437255859375
1758447618605399300,0.8443994140625,-0.933837890625,-0.304718017578125,-0.05010986328125
1758447618615372500,0.85437255859375,-0.9241485595703125,-0.3051605224609375,-0.0521392822265625
1758447618625345500,0.864345458984375,-0.9188995361328125,-0.3083343505859375,-0.05023193359375
1758447618635318500,0.874318603515625,-0.9166412353515625,-0.3074798583984375,-0.04180908203125
1758447618645290500,0.88429052734375,-0.9173431396484375,-0.30767822265625,-0.035400390625
1758447618655263500,0.894263427734375,-0.9229583740234375,-0.3011016845703125,-0.031005859375
1758447618665236500,0.904236572265625,-0.924346923828125,-0.29388427734375,-0.02978515625
1758447618675209500,0.91420947265625,-0.921234130859375,-0.2892303466796875,-0.0263214111328125
1758447618685182500,0.924182373046875,-0.917144775390625,-0.28399658203125,-0.02398681640625
1758447618695154400,0.934154541015625,-0.913482666015625,-0.28607177734375,-0.0266571044921875
1758447618705127400,0.94412744140625,-0.92010498046875,-0.28887939453125,-0.031585693359375
1758447618715100400,0.954100341796875,-0.9375,-0.29541015625,-0.0343780517578125
1758447618725073700,0.96407373046875,-0.9499969482421875,-0.29644775390625,-0.031494140625
1758447618735045400,0.97404541015625,-0.9476776123046875,-0.29656982421875,-0.0347137451171875
1758447618745018400,0.984018310546875,-0.9406890869140625,-0.2979583740234375,-0.029022216796875
1758447618754991600,0.99399169921875,-0.93682861328125,-0.2939910888671875,-0.0184783935546875
1758447618764964600,1.003964599609375,-0.93658447265625,-0.2871246337890625,-0.0117645263671875
1758447618774937300,1.013937255859375,-0.9340972900390625,-0.284576416015625,-0.009796142578125
1758447618784909600,1.02390966796875,-0.93603515625,-0.2860260009765625,-0.0095367431640625
1758447618794882600,1.033882568359375,-0.9358062744140625,-0.291961669921875,-0.00897216796875
1758447618804855600,1.04385546875,-0.9377593994140625,-0.297607421875,-0.01324462890625
1758447618814828300,1.053828369140625,-0.939056396484375,-0.30291748046875,-0.018585205078125
1758447618824800500,1.063800537109375,-0.9386444091796875,-0.3056488037109375,-0.0225372314453125
1758447618834773500,1.0737734375,-0.9459381103515625,-0.3071441650390625,-0.0253448486328125
1758447618844746500,1.08374658203125,-0.954986572265625,-0.306976318359375,-0.0287933349609375
1758447618854719500,1.093719482421875,-0.964019775390625,-0.302520751953125,-0.02703857421875
1758447618864692500,1.1036923828125,-0.971923828125,-0.2967071533203125,-0.01885986328125
1758447618874664400,1.11366455078125,-0.9659271240234375,-0.292388916015625,-0.0076446533203125
1758447618884637400,1.123637451171875,-0.962127685546875,-0.2891387939453125,-0.0016326904296875
1758447618894610400,1.1336103515625,-0.9570770263671875,-0.2896270751953125,0.0008392333984375
1758447618904583400,1.14358349609375,-0.946380615234375,-0.291473388671875,0.0062103271484375
1758447618914555600,1.1535556640625,-0.941802978515625,-0.2958221435546875,0.004425048828125
1758447618924528400,1.1635283203125,-0.9479827880859375,-0.298431396484375,-0.0012359619140625
1758447618934501400,1.17350146484375,-0.9552001953125,-0.2989501953125,-0.008636474609375
1758447618944474400,1.183474365234375,-0.966644287109375,-0.300140380859375,-0.0113525390625
1758447618954447600,1.193447509765625,-0.9727325439453125,-0.296356201171875,-0.00775146484375
1758447618964419300,1.20341943359375,-0.9716796875,-0.2910003662109375,-0.0054779052734375
1758447618974392300,1.213392333984375,-0.96173095703125,-0.288482666015625,0.0013580322265625
1758447618984365600,1.223365478515625,-0.9423828125,-0.2893524169921875,0.008819580078125
1758447618994338600,1.233338623046875,-0.932708740234375,-0.2921905517578125,0.0068359375
1758447619004310300,1.243310302734375,-0.937744140625,-0.296112060546875,0.0028533935546875
1758447619014283500,1.253283447265625,-0.94976806640625,-0.2984161376953125,0.0001220703125
1758447619024256500,1.263256591796875,-0.95526123046875,-0.294708251953125,-0.0018310546875
1758447619034229500,1.2732294921875,-0.9500274658203125,-0.291107177734375,-0.0034942626953125
1758447619044201700,1.28320166015625,-0.9392852783203125,-0.288818359375,0.0045623779296875
1758447619054174000,1.293174072265625,-0.9330902099609375,-0.28228759765625,0.00823974609375
1758447619064146700,1.303146728515625,-0.9326019287109375,-0.2790679931640625,0.0078887939453125
1758447619074119700,1.31311962890625,-0.9354705810546875,-0.2844085693359375,0.00445556640625
1758447619084093000,1.323093017578125,-0.9438323974609375,-0.2908935546875,0.003662109375
1758447619094065000,1.33306494140625,-0.9615478515625,-0.294281005859375,-0.015899658203125
1758447619104038000,1.343037841796875,-0.967315673828125,-0.294586181640625,-0.0217742919921875
1758447619114011000,1.353010986328125,-0.9626007080078125,-0.2921142578125,-0.0258331298828125
1758447619123984000,1.36298388671875,-0.95452880859375,-0.2936859130859375,-0.0299072265625
1758447619133955800,1.372955810546875,-0.9486236572265625,-0.2916107177734375,-0.0196075439453125
1758447619143928800,1.3829287109375,-0.940155029296875,-0.29052734375,-0.014312744140625
1758447619153901800,1.39290185546875,-0.934478759765625,-0.2916107177734375,-0.0129241943359375
1758447619163874800,1.402874755859375,-0.9235382080078125,-0.2907562255859375,-0.01190185546875
1758447619173847800,1.412847900390625,-0.9199371337890625,-0.287689208984375,-0.0133056640625
1758447619183819800,1.42281982421875,-0.92193603515625,-0.2891387939453125,-0.0160369873046875
1758447619193792800,1.432792724609375,-0.9285736083984375,-0.2938232421875,-0.0188751220703125
1758447619203765800,1.442765869140625,-0.9344024658203125,-0.30096435546875,-0.0169830322265625
1758447619213739000,1.452739013671875,-0.9386444091796875,-0.307373046875,-0.018829345703125
1758447619223710700,1.462710693359375,-0.9417877197265625,-0.3119049072265625,-0.027435302734375
1758447619233683700,1.47268359375,-0.939056396484375,-0.3091278076171875,-0.0296173095703125
1758447619243657000,1.482656982421875,-0.927215576171875,-0.3056640625,-0.02203369140625
1758447619253630000,1.4926298828125,-0.922027587890625,-0.30316162109375,-0.01763916015625
1758447619263602700,1.502602783203125,-0.927154541015625,-0.303375244140625,-0.017822265625
1758447619273575000,1.512574951171875,-0.951416015625,-0.3034210205078125,-0.0208282470703125
1758447619283548000,1.5225478515625,-0.9713134765625,-0.3019561767578125,-0.0272064208984375
1758447619293521000,1.53252099609375,-0.976318359375,-0.2991790771484375,-0.03338623046875
1758447619303493600,1.54249365234375,-0.9705810546875,-0.3017425537109375,-0.0345001220703125
1758447619313465900,1.5524658203125,-0.9614105224609375,-0.3019256591796875,-0.0321044921875
1758447619323438800,1.56243896484375,-0.949127197265625,-0.29730224609375,-0.0294647216796875
1758447619333411800,1.572411865234375,-0.9456634521484375,-0.2986907958984375,-0.02337646484375
1758447619343384800,1.582384765625,-0.9461822509765625,-0.2979583740234375,-0.0233154296875
1758447619353356800,1.592356689453125,-0.9422760009765625,-0.298431396484375,-0.02691650390625
1758447619363329800,1.602329833984375,-0.943817138671875,-0.3020782470703125,-0.0308990478515625
1758447619373303000,1.612302978515625,-0.943511962890625,-0.3048095703125,-0.0369720458984375
1758447619383275800,1.62227587890625,-0.9401702880859375,-0.3076934814453125,-0.0355987548828125
1758447619393248800,1.632248779296875,-0.9336090087890625,-0.3049163818359375,-0.0318145751953125
1758447619403221000,1.642220947265625,-0.9305267333984375,-0.3055419921875,-0.0276336669921875
1758447619413194000,1.652194091796875,-0.9298553466796875,-0.3036346435546875,-0.0272216796875
1758447619423166700,1.662166748046875,-0.9322509765625,-0.3025360107421875,-0.0326385498046875
1758447619433139700,1.6721396484375,-0.9373321533203125,-0.302886962890625,-0.0330047607421875
1758447619443112000,1.68211181640625,-0.9371795654296875,-0.302276611328125,-0.035125732421875
1758447619453085000,1.6920849609375,-0.9320831298828125,-0.30523681640625,-0.03375244140625
1758447619463057700,1.7020576171875,-0.9301605224609375,-0.303253173828125,-0.0304412841796875
1758447619473031000,1.712031005859375,-0.9340057373046875,-0.29571533203125,-0.02386474609375
1758447619483004000,1.72200390625,-0.9373016357421875,-0.288665771484375,-0.01605224609375
1758447619492975900,1.731975830078125,-0.9346466064453125,-0.286102294921875,-0.0150909423828125
1758447619502948900,1.741948974609375,-0.92822265625,-0.292572021484375,-0.01873779296875
1758447619512921900,1.751921875,-0.92626953125,-0.297943115234375,-0.01971435546875
1758447619522894800,1.761894775390625,-0.9285888671875,-0.298614501953125,-0.0224761962890625
1758447619532867000,1.7718671875,-0.93133544921875,-0.3021697998046875,-0.0258331298828125
1758447619542839800,1.78183984375,-0.9290924072265625,-0.3055877685546875,-0.026947021484375
1758447619552812800,1.791812744140625,-0.9360504150390625,-0.3066864013671875,-0.0258331298828125
1758447619562785800,1.801785888671875,-0.9423675537109375,-0.3006591796875,-0.0238189697265625
1758447619572758000,1.811758056640625,-0.9471893310546875,-0.2956085205078125,-0.0225830078125
1758447619582730800,1.821730712890625,-0.942626953125,-0.2937164306640625,-0.01983642578125
1758447619592703700,1.831703857421875,-0.9338531494140625,-0.2968902587890625,-0.0168609619140625
1758447619602677000,1.841677001953125,-0.9373016357421875,-0.299774169921875,-0.01800537109375
1758447619612650000,1.85164990234375,-0.9438018798828125,-0.301544189453125,-0.0238800048828125
1758447619622621700,1.86162158203125,-0.9511566162109375,-0.30419921875,-0.0262298583984375
1758447619632595000,1.871594970703125,-0.959808349609375,-0.3048858642578125,-0.0241241455078125
1758447619642568000,1.88156787109375,-0.9613189697265625,-0.301239013671875,-0.0201568603515625
1758447619652541000,1.891541015625,-0.9647674560546875,-0.298004150390625,-0.0152740478515625
1758447619662513000,1.901512939453125,-0.965179443359375,-0.301025390625,-0.014190673828125
1758447619672486000,1.91148583984375,-0.964019775390625,-0.3051605224609375,-0.018402099609375
1758447619682459000,1.921458984375,-0.962158203125,-0.31036376953125,-0.0250091552734375
1758447619692432000,1.931431884765625,-0.9597320556640625,-0.311920166015625,-0.029144287109375
1758447619702403800,1.94140380859375,-0.95587158203125,-0.3099365234375,-0.030548095703125
1758447619712376800,1.951376953125,-0.9485931396484375,-0.306793212890625,-0.0251922607421875
1758447619722349800,1.961349853515625,-0.9410400390625,-0.306732177734375,-0.018768310546875
1758447619732322800,1.97132275390625,-0.93548583984375,-0.306488037109375,-0.0194244384765625
1758447619742295800,1.9812958984375,-0.9347686767578125,-0.306732177734375,-0.027008056640625
1758447619752267800,1.991267822265625,-0.94000244140625,-0.3068389892578125,-0.02996826171875
1758447619762240800,2.00124072265625,-0.9425048828125,-0.30712890625,-0.031585693359375
1758447619772214000,2.011214111328125,-0.9432830810546875,-0.306884765625,-0.029083251953125
1758447619782186800,2.021186767578125,-0.9509429931640625,-0.3058319091796875,-0.0274505615234375
1758447619792158700,2.03115869140625,-0.9530029296875,-0.304229736328125,-0.02691650390625
1758447619802132000,2.041132080078125,-0.944427490234375,-0.30029296875,-0.0241851806640625
1758447619812105000,2.05110498046875,-0.9342498779296875,-0.298370361328125,-0.021697998046875
1758447619822077700,2.06107763671875,-0.9325103759765625,-0.2985687255859375,-0.0179290771484375
1758447619832050000,2.0710498046875,-0.9356689453125,-0.2955169677734375,-0.017333984375
1758447619842023000,2.08102294921875,-0.947021484375,-0.29266357421875,-0.0199432373046875
1758447619851996000,2.090995849609375,-0.9615020751953125,-0.2920989990234375,-0.0218048095703125
1758447619861968600,2.10096875,-0.968170166015625,-0.2888031005859375,-0.0196685791015625
1758447619871942000,2.11094189453125,-0.963623046875,-0.28472900390625,-0.0199737548828125
1758447619881913900,2.120913818359375,-0.9480743408203125,-0.2835235595703125,-0.018341064453125
1758447619891886800,2.130886962890625,-0.9345703125,-0.29071044921875,-0.01837158203125
1758447619901859800,2.14085986328125,-0.92572021484375,-0.3007354736328125,-0.019317626953125
1758447619911832800,2.150832763671875,-0.9239654541015625,-0.30584716796875,-0.0240020751953125
1758447619921804800,2.1608046875,-0.935150146484375,-0.3110504150390625,-0.0296783447265625
1758447619931778000,2.170778076171875,-0.94561767578125,-0.30926513671875,-0.031524658203125
1758447619941750800,2.180750732421875,-0.9487152099609375,-0.304779052734375,-0.03143310546875
1758447619951723800,2.190723876953125,-0.94512939453125,-0.29864501953125,-0.022796630859375
1758447619961696000,2.200696044921875,-0.945709228515625,-0.2950439453125,-0.02044677734375
1758447619971669000,2.2106689453125,-0.9523162841796875,-0.297637939453125,-0.0264434814453125
1758447619981641700,2.220641845703125,-0.9512176513671875,-0.301177978515625,-0.028289794921875
1758447619991614700,2.23061474609375,-0.948150634765625,-0.303436279296875,-0.0257110595703125
1758447620001588000,2.240587890625,-0.9431304931640625,-0.3005523681640625,-0.021484375
1758447620011560000,2.250559814453125,-0.9362335205078125,-0.2987060546875,-0.021026611328125
1758447620021532700,2.26053271484375,-0.93280029296875,-0.2975006103515625,-0.0221099853515625
1758447620031506000,2.270505859375,-0.9342193603515625,-0.2987823486328125,-0.0225982666015625
1758447620041479000,2.28047900390625,-0.93682861328125,-0.29833984375,-0.024658203125
1758447620051451000,2.290450927734375,-0.9415740966796875,-0.3002166748046875,-0.026123046875
1758447620061424000,2.300424072265625,-0.94256591796875,-0.29425048828125,-0.027130126953125
1758447620071397000,2.310397216796875,-0.9398956298828125,-0.288665771484375,-0.0256805419921875
1758447620081369900,2.320369873046875,-0.9382171630859375,-0.2850494384765625,-0.0226287841796875
1758447620091342000,2.330342041015625,-0.9333648681640625,-0.2894134521484375,-0.017791748046875
1758447620101315000,2.340315185546875,-0.9316253662109375,-0.2923736572265625,-0.0129852294921875
1758447620111288000,2.3502880859375,-0.93304443359375,-0.29559326171875,-0.012237548828125
1758447620121260800,2.3602607421875,-0.93365478515625,-0.301239013671875,-0.0167083740234375
1758447620131233000,2.37023291015625,-0.934844970703125,-0.3018035888671875,-0.021392822265625
1758447620141206000,2.3802060546875,-0.9291534423828125,-0.306793212890625,-0.0287933349609375
1758447620151179000,2.390178955078125,-0.9182586669921875,-0.3119354248046875,-0.0335235595703125
1758447620161152000,2.400152099609375,-0.918243408203125,-0.3149566650390625,-0.034393310546875
1758447620171125000,2.410125,-0.92138671875,-0.316375732421875,-0.03619384765625
1758447620181097000,2.420096923828125,-0.928619384765625,-0.3128814697265625,-0.034698486328125
1758447620191070000,2.430070068359375,-0.9388580322265625,-0.3068389892578125,-0.0323638916015625
1758447620201043000,2.44004296875,-0.9502716064453125,-0.3043670654296875,-0.031646728515625
1758447620211016000,2.450015869140625,-0.957183837890625,-0.3046722412109375,-0.03131103515625
1758447620220988200,2.45998828125,-0.9585418701171875,-0.305938720703125,-0.0338134765625
1758447620230961200,2.469961181640625,-0.958984375,-0.3073883056640625,-0.038818359375
1758447620240934000,2.479933837890625,-0.955718994140625,-0.30841064453125,-0.0416259765625
1758447620250907000,2.489906982421875,-0.9561309814453125,-0.3057861328125,-0.0392608642578125
1758447620260879000,2.499879150390625,-0.9536285400390625,-0.302734375,-0.0340423583984375
1758447620270852000,2.50985205078125,-0.9505615234375,-0.3006134033203125,-0.0263824462890625
1758447620280824800,2.519824951171875,-0.9432830810546875,-0.298614501953125,-0.023590087890625
1758447620290797800,2.5297978515625,-0.9366302490234375,-0.3019256591796875,-0.026458740234375
1758447620300771000,2.53977099609375,-0.937347412109375,-0.30419921875,-0.02618408203125
1758447620310742800,2.54974267578125,-0.94085693359375,-0.3039093017578125,-0.0258636474609375
1758447620320716000,2.559716064453125,-0.945404052734375,-0.3022918701171875,-0.0233612060546875
1758447620330689000,2.56968896484375,-0.9451904296875,-0.30181884765625,-0.0233917236328125
1758447620340662000,2.579662109375,-0.941314697265625,-0.2961883544921875,-0.0249176025390625
1758447620350634000,2.589634033203125,-0.937835693359375,-0.29150390625,-0.023406982421875
1758447620360607000,2.59960693359375,-0.9286651611328125,-0.290069580078125,-0.0198822021484375
1758447620370580000,2.609580078125,-0.9219818115234375,-0.2940521240234375,-0.0250701904296875
1758447620380553000,2.619552978515625,-0.9293975830078125,-0.3032073974609375,-0.0308837890625
1758447620390525000,2.62952490234375,-0.9384918212890625,-0.308807373046875,-0.03533935546875
1758447620400498000,2.639497802734375,-0.941619873046875,-0.30810546875,-0.0366973876953125
1758447620410471000,2.649470947265625,-0.941436767578125,-0.30340576171875,-0.037017822265625
1758447620420444000,2.65944384765625,-0.941009521484375,-0.299468994140625,-0.0324249267578125
1758447620430416000,2.669415771484375,-0.9492034912109375,-0.29583740234375,-0.030731201171875
1758447620440388900,2.679388916015625,-0.962127685546875,-0.29449462890625,-0.0321807861328125
1758447620450361900,2.68936181640625,-0.970489501953125,-0.29412841796875,-0.0338897705078125
1758447620460335000,2.699335205078125,-0.96722412109375,-0.295654296875,-0.03582763671875
1758447620470306800,2.709306884765625,-0.958648681640625,-0.2998199462890625,-0.0356292724609375
1758447620480279800,2.71927978515625,-0.9555816650390625,-0.3048095703125,-0.0299835205078125
1758447620490253000,2.729253173828125,-0.9525146484375,-0.3013153076171875,-0.0248565673828125
1758447620500226000,2.73922607421875,-0.9551849365234375,-0.3006591796875,-0.0263519287109375
1758447620510199000,2.749198974609375,-0.9583892822265625,-0.3017578125,-0.0258026123046875
1758447620520171000,2.7591708984375,-0.9476776123046875,-0.3003387451171875,-0.0267333984375
1758447620530144000,2.76914404296875,-0.9313201904296875,-0.3050994873046875,-0.0318756103515625
1758447620540117000,2.779116943359375,-0.9234466552734375,-0.308319091796875,-0.03692626953125
1758447620550090000,2.789090087890625,-0.9280242919921875,-0.3077545166015625,-0.0382232666015625
1758447620560062000,2.79906201171875,-0.939971923828125,-0.305023193359375,-0.0358734130859375
1758447620570035000,2.809034912109375,-0.9499053955078125,-0.298553466796875,-0.0347747802734375
1758447620580008000,2.819008056640625,-0.953643798828125,-0.2962799072265625,-0.03204345703125
1758447620589981200,2.828981201171875,-0.954864501953125,-0.2928314208984375,-0.0272216796875
1758447620599953000,2.838952880859375,-0.948760986328125,-0.28826904296875,-0.0258941650390625
1758447620609926000,2.84892578125,-0.941314697265625,-0.289581298828125,-0.0256195068359375
1758447620619899100,2.858899169921875,-0.93798828125,-0.2921142578125,-0.02435302734375
1758447620629872000,2.8688720703125,-0.936004638671875,-0.2916412353515625,-0.02783203125
1758447620639843800,2.87884375,-0.936614990234375,-0.29571533203125,-0.0297088623046875
1758447620649817000,2.888817138671875,-0.9372406005859375,-0.29522705078125,-0.0298004150390625
1758447620659790000,2.8987900390625,-0.9369354248046875,-0.296783447265625,-0.0309906005859375
1758447620669763000,2.90876318359375,-0.9351959228515625,-0.29620361328125,-0.029327392578125
1758447620679735800,2.91873583984375,-0.930145263671875,-0.2943267822265625,-0.0325469970703125
1758447620689708000,2.9287080078125,-0.929290771484375,-0.303436279296875,-0.0347747802734375
1758447620699681000,2.938680908203125,-0.9303436279296875,-0.3016204833984375,-0.030303955078125
1758447620709653800,2.94865380859375,-0.9366302490234375,-0.302734375,-0.028961181640625
1758447620719627000,2.958626953125,-0.9445037841796875,-0.3054351806640625,-0.032379150390625
1758447620729599000,2.968598876953125,-0.949249267578125,-0.3062896728515625,-0.0334014892578125
1758447620739572000,2.978572021484375,-0.9468536376953125,-0.3079681396484375,-0.0332489013671875
1758447620749545000,2.988544921875,-0.949249267578125,-0.3079833984375,-0.0340423583984375
1758447620759518000,2.99851806640625,-0.9493408203125,-0.3079681396484375,-0.0374908447265625
1758447620769490000,3.008489990234375,-0.9470977783203125,-0.3066253662109375,-0.037628173828125
1758447620779463200,3.018463134765625,-0.94049072265625,-0.30572509765625,-0.037261962890625
1758447620789436000,3.028435791015625,-0.94012451171875,-0.3085174560546875,-0.036773681640625
1758447620799409000,3.038408935546875,-0.9434356689453125,-0.3065948486328125,-0.0362091064453125
1758447620809381000,3.048381103515625,-0.9506378173828125,-0.30426025390625,-0.0362701416015625
1758447620819354000,3.05835400390625,-0.955535888671875,-0.3053436279296875,-0.0379180908203125
1758447620829326800,3.068326904296875,-0.9603118896484375,-0.308197021484375,-0.03826904296875
1758447620839299800,3.0782998046875,-0.9613494873046875,-0.3035430908203125,-0.037109375
1758447620849272000,3.08827197265625,-0.9566802978515625,-0.30047607421875,-0.0322418212890625
1758447620859245000,3.0982451171875,-0.9493865966796875,-0.29974365234375,-0.030426025390625
1758447620869217800,3.1082177734375,-0.94427490234375,-0.30242919921875,-0.030517578125
1758447620879191000,3.11819091796875,-0.942138671875,-0.303802490234375,-0.0319366455078125
1758447620889164000,3.1281640625,-0.9452972412109375,-0.3058929443359375,-0.0354766845703125
1758447620899136000,3.138135986328125,-0.9472808837890625,-0.3039093017578125,-0.03363037109375
1758447620909109000,3.14810888671875,-0.947845458984375,-0.2988739013671875,-0.031524658203125
1758447620919082000,3.15808203125,-0.9458465576171875,-0.2945098876953125,-0.029754638671875
1758447620929055000,3.168054931640625,-0.939483642578125,-0.2947845458984375,-0.0263214111328125
1758447620939027000,3.17802685546875,-0.9315338134765625,-0.294830322265625,-0.0291748046875
1758447620949000000,3.188,-0.92620849609375,-0.29669189453125,-0.034454345703125
1758447620958973000,3.197972900390625,-0.927093505859375,-0.2970123291015625,-0.0368194580078125
1758447620968946000,3.20794580078125,-0.92510986328125,-0.2971038818359375,-0.035614013671875
1758447620978918100,3.217918212890625,-0.9178009033203125,-0.2991180419921875,-0.0340118408203125
1758447620988891000,3.227890869140625,-0.90972900390625,-0.3043365478515625,-0.0305328369140625
1758447620998864000,3.23786376953125,-0.903289794921875,-0.3094635009765625,-0.0297698974609375
1758447621008836900,3.2478369140625,-0.897857666015625,-0.3123626708984375,-0.0294952392578125
1758447621018809000,3.25780908203125,-0.901580810546875,-0.31146240234375,-0.0263214111328125
1758447621028781800,3.26778173828125,-0.9156951904296875,-0.30743408203125,-0.026458740234375
1758447621038754800,3.2777548828125,-0.9310455322265625,-0.305267333984375,-0.037078857421875
1758447621048728600,3.287728515625,-0.9471435546875,-0.3024444580078125,-0.0442352294921875
1758447621058700300,3.2977001953125,-0.96099853515625,-0.299774169921875,-0.0413665771484375
1758447621068673300,3.30767333984375,-0.96014404296875,-0.2990875244140625,-0.04150390625
1758447621078646500,3.317646484375,-0.954376220703125,-0.29730224609375,-0.0385894775390625
1758447621088619300,3.327619384765625,-0.9478607177734375,-0.298370361328125,-0.0295257568359375
1758447621098591200,3.33759130859375,-0.940582275390625,-0.298126220703125,-0.0255279541015625
1758447621108564500,3.347564453125,-0.9426116943359375,-0.30047607421875,-0.02850341796875
1758447621118537500,3.357537353515625,-0.94500732421875,-0.3003692626953125,-0.03424072265625
1758447621128510200,3.36751025390625,-0.9412384033203125,-0.301483154296875,-0.0376434326171875
1758447621138482400,3.377482421875,-0.938812255859375,-0.303466796875,-0.0356292724609375
1758447621148455400,3.387455322265625,-0.9371795654296875,-0.3038177490234375,-0.0329132080078125
1758447621158428400,3.397428466796875,-0.932037353515625,-0.3066253662109375,-0.0341339111328125
1758447621168401200,3.407401123046875,-0.9362335205078125,-0.30914306640625,-0.0380706787109375
1758447621178373400,3.417373291015625,-0.9501495361328125,-0.3093414306640625,-0.042510986328125
1758447621188346400,3.427346435546875,-0.960540771484375,-0.3048858642578125,-0.0428924560546875
1758447621198319400,3.4373193359375,-0.962799072265625,-0.3022613525390625,-0.0408935546875
1758447621208292400,3.447292236328125,-0.9566497802734375,-0.3015899658203125,-0.036163330078125
1758447621218265300,3.457265380859375,-0.945281982421875,-0.2993316650390625,-0.0341339111328125
1758447621228237300,3.4672373046875,-0.93365478515625,-0.3031158447265625,-0.0371246337890625
1758447621238210600,3.47721044921875,-0.9305419921875,-0.3076934814453125,-0.0355224609375
1758447621248183300,3.487183349609375,-0.929412841796875,-0.311004638671875,-0.037841796875
1758447621258156300,3.49715625,-0.9281463623046875,-0.31317138671875,-0.0406951904296875
1758447621268128500,3.50712841796875,-0.9257965087890625,-0.3137359619140625,-0.0420989990234375
1758447621278101500,3.5171015625,-0.9273834228515625,-0.3101348876953125,-0.0438690185546875
1758447621288074200,3.52707421875,-0.93060302734375,-0.306793212890625,-0.0449371337890625
1758447621298047200,3.537047119140625,-0.940765380859375,-0.3039703369140625,-0.0453033447265625
1758447621308019500,3.54701953125,-0.9470672607421875,-0.3004302978515625,-0.0456085205078125
1758447621317992400,3.556992431640625,-0.946136474609375,-0.29620361328125,-0.0416259765625
1758447621327965200,3.566965087890625,-0.9450836181640625,-0.29547119140625,-0.0368499755859375
1758447621337938400,3.5769384765625,-0.9444580078125,-0.292633056640625,-0.031829833984375
1758447621347910400,3.586910400390625,-0.947662353515625,-0.2866668701171875,-0.030731201171875
1758447621357883400,3.59688330078125,-0.95648193359375,-0.2858428955078125,-0.032318115234375
1758447621367856400,3.6068564453125,-0.9650115966796875,-0.288787841796875,-0.0384674072265625
1758447621377829400,3.616829345703125,-0.9698333740234375,-0.2933502197265625,-0.04534912109375
1758447621387801300,3.62680126953125,-0.970611572265625,-0.2957763671875,-0.0454254150390625
1758447621397774300,3.6367744140625,-0.96905517578125,-0.2963409423828125,-0.045135498046875
1758447621407747300,3.646747314453125,-0.9640350341796875,-0.2988128662109375,-0.0440216064453125
1758447621417720300,3.65672021484375,-0.9599609375,-0.3005828857421875,-0.0430145263671875
1758447621427692300,3.6666923828125,-0.9560699462890625,-0.2982635498046875,-0.042816162109375
1758447621437665500,3.67666552734375,-0.9575347900390625,-0.2977142333984375,-0.042755126953125
1758447621447638300,3.68663818359375,-0.9622802734375,-0.2957611083984375,-0.04229736328125
1758447621457611300,3.696611328125,-0.96368408203125,-0.2940216064453125,-0.0408172607421875
1758447621467583500,3.70658349609375,-0.9574127197265625,-0.2923431396484375,-0.039825439453125
1758447621477556200,3.71655615234375,-0.9461212158203125,-0.298248291015625,-0.0419464111328125
1758447621487529200,3.726529296875,-0.9348602294921875,-0.3020782470703125,-0.0421905517578125
1758447621497502200,3.736502197265625,-0.9300537109375,-0.30755615234375,-0.0428619384765625
1758447621507474400,3.746474365234375,-0.9356536865234375,-0.3108062744140625,-0.04656982421875
1758447621517447200,3.756447265625,-0.9427337646484375,-0.3105316162109375,-0.0479583740234375
1758447621527420200,3.766420166015625,-0.9479827880859375,-0.3060760498046875,-0.04595947265625
1758447621537393400,3.776393310546875,-0.9476318359375,-0.3018798828125,-0.0450439453125
1758447621547365400,3.786365478515625,-0.944305419921875,-0.2965240478515625,-0.046630859375
1758447621557338000,3.796338134765625,-0.9438629150390625,-0.2919769287109375,-0.0502471923828125
1758447621567311400,3.806311279296875,-0.951904296875,-0.2929534912109375,-0.049041748046875
1758447621577284400,3.816284423828125,-0.9590301513671875,-0.2967987060546875,-0.045379638671875
1758447621587256300,3.82625634765625,-0.957855224609375,-0.2999267578125,-0.0430145263671875
1758447621597229300,3.836229248046875,-0.946990966796875,-0.304931640625,-0.03802490234375
1758447621607202300,3.846202392578125,-0.92657470703125,-0.3067779541015625,-0.0350189208984375
1758447621617175300,3.85617529296875,-0.9074249267578125,-0.30657958984375,-0.0357818603515625
1758447621627147500,3.8661474609375,-0.9019622802734375,-0.3063201904296875,-0.03741455078125
1758447621637120300,3.876120361328125,-0.913238525390625,-0.3055877685546875,-0.0384368896484375
1758447621647093200,3.88609326171875,-0.9362640380859375,-0.30224609375,-0.042083740234375
1758447621657066200,3.896066162109375,-0.9506988525390625,-0.2991943359375,-0.0464935302734375
1758447621667038500,3.90603857421875,-0.9553375244140625,-0.3002777099609375,-0.0467681884765625
1758447621677011200,3.91601123046875,-0.957763671875,-0.299102783203125,-0.0467529296875
1758447621686984200,3.925984130859375,-0.9500885009765625,-0.30023193359375,-0.0433807373046875
1758447621698203400,3.937203369140625,-0.9426422119140625,-0.3004302978515625,-0.0362091064453125
1758447621708176400,3.94717626953125,-0.9433441162109375,-0.3005828857421875,-0.0318450927734375
1758447621718148400,3.9571484375,-0.9335784912109375,-0.301513671875,-0.0376129150390625
1758447621728121300,3.967121337890625,-0.920501708984375,-0.3035125732421875,-0.041656494140625
1758447621738094300,3.97709423828125,-0.92236328125,-0.3058624267578125,-0.0414581298828125
1758447621748067300,3.9870673828125,-0.92889404296875,-0.3072357177734375,-0.0446624755859375
1758447621758039300,3.997039306640625,-0.9362335205078125,-0.3082733154296875,-0.0462493896484375
1758447621768012300,4.00701220703125,-0.949737548828125,-0.30780029296875,-0.042694091796875
1758447621777985300,4.0169853515625,-0.959991455078125,-0.3030242919921875,-0.0400238037109375
1758447621787958300,4.026958251953125,-0.9482421875,-0.2975006103515625,-0.0363922119140625
1758447621797930200,4.03693017578125,-0.9271240234375,-0.2970123291015625,-0.0299224853515625
1758447621807903200,4.0469033203125,-0.9165191650390625,-0.2987518310546875,-0.03118896484375
1758447621817876200,4.056876220703125,-0.922607421875,-0.3050537109375,-0.0398101806640625
1758447621827849500,4.066849365234375,-0.9476165771484375,-0.3079986572265625,-0.0450439453125
1758447621837821200,4.0768212890625,-0.9722747802734375,-0.307403564453125,-0.04345703125
1758447621847794200,4.086794189453125,-0.9823455810546875,-0.3028564453125,-0.037078857421875
1758447621857767400,4.096767333984375,-0.976959228515625,-0.293975830078125,-0.029052734375
1758447621867740400,4.106740478515625,-0.9577484130859375,-0.2890167236328125,-0.02264404296875
1758447621877712100,4.116712158203125,-0.9405364990234375,-0.2909088134765625,-0.01953125
1758447621887685400,4.126685302734375,-0.9323577880859375,-0.2954864501953125,-0.0205535888671875
1758447621897658400,4.136658447265625,-0.932769775390625,-0.3040313720703125,-0.0276031494140625
1758447621907631400,4.14663134765625,-0.9356231689453125,-0.3101806640625,-0.03460693359375
1758447621917603300,4.156603271484375,-0.934539794921875,-0.3123016357421875,-0.0357818603515625
1758447621927576300,4.166576416015625,-0.9306488037109375,-0.3142852783203125,-0.030670166015625
1758447621937549300,4.17654931640625,-0.9276123046875,-0.3105926513671875,-0.0269927978515625
1758447621947522300,4.186522216796875,-0.9210052490234375,-0.305755615234375,-0.024444580078125
1758447621957494300,4.196494384765625,-0.916778564453125,-0.306549072265625,-0.0252227783203125
1758447621967467300,4.20646728515625,-0.910369873046875,-0.3093414306640625,-0.023345947265625
1758447621977440300,4.216440185546875,-0.9134368896484375,-0.3081207275390625,-0.024078369140625
1758447621987413500,4.22641357421875,-0.9205322265625,-0.310791015625,-0.03466796875
1758447621997386500,4.236386474609375,-0.9263763427734375,-0.3154754638671875,-0.036956787109375
1758447622007359200,4.246359130859375,-0.93658447265625,-0.314453125,-0.0328521728515625
1758447622017332200,4.256332275390625,-0.9500274658203125,-0.30767822265625,-0.0308074951171875
1758447622027304400,4.266304443359375,-0.9478607177734375,-0.300994873046875,-0.0270843505859375
1758447622037277400,4.27627734375,-0.944854736328125,-0.2967376708984375,-0.0260772705078125
1758447622047250200,4.286250244140625,-0.9521331787109375,-0.296966552734375,-0.023468017578125
1758447622057223400,4.296223388671875,-0.96002197265625,-0.29815673828125,-0.0223388671875
1758447622067195400,4.3061953125,-0.95904541015625,-0.2972564697265625,-0.0260009765625
1758447622077168000,4.316168212890625,-0.9628753662109375,-0.3003387451171875,-0.0323486328125
1758447622087141400,4.326141357421875,-0.9654541015625,-0.2989044189453125,-0.0309600830078125
1758447622097114400,4.3361142578125,-0.97381591796875,-0.294708251953125,-0.0355987548828125
1758447622107086300,4.34608642578125,-0.9773101806640625,-0.297027587890625,-0.03485107421875
1758447622117059300,4.356059326171875,-0.9730377197265625,-0.29913330078125,-0.03021240234375
1758447622127032300,4.3660322265625,-0.9641265869140625,-0.2984771728515625,-0.0284271240234375
1758447622137005300,4.37600537109375,-0.95172119140625,-0.2963409423828125,-0.0294342041015625
1758447622146977300,4.385977294921875,-0.9387359619140625,-0.2989501953125,-0.033843994140625
1758447622156950300,4.3959501953125,-0.931365966796875,-0.2998046875,-0.03558349609375
1758447622166923300,4.40592333984375,-0.9352264404296875,-0.298919677734375,-0.0373382568359375
1758447622176896300,4.415896240234375,-0.943695068359375,-0.299072265625,-0.0376434326171875
1758447622186868200,4.4258681640625,-0.94268798828125,-0.30255126953125,-0.0362396240234375
1758447622196841200,4.43584130859375,-0.929840087890625,-0.306610107421875,-0.0325164794921875
1758447622206814200,4.445814208984375,-0.911041259765625,-0.3095245361328125,-0.0339202880859375
1758447622216787500,4.455787353515625,-0.9017486572265625,-0.3115692138671875,-0.040374755859375
1758447622226759200,4.46575927734375,-0.907012939453125,-0.310089111328125,-0.0417327880859375
1758447622236732200,4.475732177734375,-0.9261627197265625,-0.3060150146484375,-0.040679931640625
1758447622246705400,4.485705322265625,-0.9489898681640625,-0.301483154296875,-0.0440521240234375
1758447622256678400,4.495678466796875,-0.9593353271484375,-0.2971649169921875,-0.04705810546875
1758447622266650000,4.505650146484375,-0.960540771484375,-0.296661376953125,-0.0479888916015625
1758447622276623400,4.515623291015625,-0.9558563232421875,-0.29632568359375,-0.04486083984375
1758447622286596400,4.525596435546875,-0.94683837890625,-0.2965545654296875,-0.040863037109375
1758447622296569300,4.5355693359375,-0.9409027099609375,-0.298095703125,-0.036102294921875
1758447622306541300,4.545541259765625,-0.934722900390625,-0.3013153076171875,-0.034027099609375
1758447622316514300,4.555514404296875,-0.92242431640625,-0.302581787109375,-0.034912109375
1758447622326487300,4.5654873046875,-0.918792724609375,-0.3027801513671875,-0.0353240966796875
1758447622336460300,4.575460205078125,-0.918182373046875,-0.301910400390625,-0.0384063720703125
1758447622346432300,4.585432373046875,-0.922576904296875,-0.3016815185546875,-0.04193115234375
1758447622356405200,4.5954052734375,-0.94122314453125,-0.3021087646484375,-0.04266357421875
1758447622366378200,4.605378173828125,-0.956207275390625,-0.3000640869140625,-0.0447540283203125
1758447622376351200,4.615351318359375,-0.9649200439453125,-0.298919677734375,-0.0497894287109375
1758447622386323200,4.6253232421875,-0.9646453857421875,-0.29888916015625,-0.046539306640625
1758447622396296200,4.635296142578125,-0.96044921875,-0.2960662841796875,-0.0449371337890625
1758447622406269200,4.645269287109375,-0.950347900390625,-0.2940826416015625,-0.0469207763671875
1758447622416242400,4.655242431640625,-0.9386444091796875,-0.2944183349609375,-0.0466156005859375
1758447622426214100,4.665214111328125,-0.9357757568359375,-0.29736328125,-0.047393798828125
1758447622436187400,4.6751875,-0.9381866455078125,-0.302978515625,-0.048583984375
1758447622446160400,4.685160400390625,-0.938995361328125,-0.30535888671875,-0.049957275390625
1758447622456133400,4.69513330078125,-0.93975830078125,-0.3044281005859375,-0.04888916015625
1758447622466105300,4.705105224609375,-0.940032958984375,-0.304107666015625,-0.0450592041015625
1758447622476078300,4.715078369140625,-0.9371490478515625,-0.3007965087890625,-0.0433502197265625
1758447622486051300,4.72505126953125,-0.931304931640625,-0.297637939453125,-0.0438995361328125
1758447622496024300,4.7350244140625,-0.9295501708984375,-0.2976837158203125,-0.042816162109375
1758447622505996300,4.744996337890625,-0.931121826171875,-0.29833984375,-0.04022216796875
1758447622515969300,4.75496923828125,-0.9333953857421875,-0.296630859375,-0.0405731201171875
1758447622525942300,4.7649423828125,-0.9404144287109375,-0.2969512939453125,-0.0420379638671875
1758447622535915300,4.774915283203125,-0.94708251953125,-0.2943572998046875,-0.040924072265625
1758447622545887200,4.78488720703125,-0.9550018310546875,-0.295684814453125,-0.0412750244140625
1758447622555860200,4.794860107421875,-0.9537353515625,-0.295257568359375,-0.041839599609375
1758447622565833200,4.804833251953125,-0.9467010498046875,-0.2940826416015625,-0.0423126220703125
1758447622575806500,4.814806396484375,-0.936553955078125,-0.2988128662109375,-0.039947509765625
1758447622585778200,4.824778076171875,-0.9307708740234375,-0.3029022216796875,-0.038909912109375
1758447622595751200,4.834751220703125,-0.9251708984375,-0.303802490234375,-0.0411376953125
1758447622605724400,4.844724365234375,-0.92083740234375,-0.3038330078125,-0.0411224365234375
1758447622615697400,4.854697509765625,-0.9290771484375,-0.3088531494140625,-0.047698974609375
1758447622625669000,4.864669189453125,-0.944244384765625,-0.30987548828125,-0.0492095947265625
1758447622635642400,4.874642333984375,-0.948974609375,-0.3069305419921875,-0.04632568359375
1758447622645615400,4.884615478515625,-0.9518585205078125,-0.3023834228515625,-0.040985107421875
1758447622655588400,4.89458837890625,-0.955780029296875,-0.3005218505859375,-0.037109375
1758447622665560300,4.904560302734375,-0.9524078369140625,-0.295257568359375,-0.041748046875
1758447622675533300,4.914533203125,-0.9448699951171875,-0.2925567626953125,-0.0446319580078125
1758447622685506300,4.92450634765625,-0.9392852783203125,-0.2960052490234375,-0.040863037109375
1758447622695479300,4.934479248046875,-0.9443206787109375,-0.2983245849609375,-0.037628173828125
1758447622705451300,4.944451171875,-0.950042724609375,-0.2989959716796875,-0.0370025634765625
1758447622715424300,4.95442431640625,-0.9503631591796875,-0.2949066162109375,-0.033599853515625
1758447622725397200,4.964397216796875,-0.94525146484375,-0.2934112548828125,-0.0357513427734375
1758447622735369200,4.974369140625,-0.937255859375,-0.290313720703125,-0.0409698486328125
1758447622745342200,4.98434228515625,-0.93359375,-0.289337158203125,-0.0395355224609375
1758447622755315200,4.994315185546875,-0.9315948486328125,-0.2888336181640625,-0.038299560546875
1758447622765288400,5.004288330078125,-0.9313507080078125,-0.290924072265625,-0.0411376953125
1758447622775260200,5.01426025390625,-0.9351959228515625,-0.295989990234375,-0.0369873046875
1758447622785233200,5.024233154296875,-0.9281768798828125,-0.29852294921875,-0.0317840576171875
1758447622795206400,5.034206298828125,-0.9146270751953125,-0.2974853515625,-0.03240966796875
1758447622805179400,5.044179443359375,-0.9100799560546875,-0.2985992431640625,-0.0395965576171875
1758447622815151000,5.054151123046875,-0.9204254150390625,-0.2975616455078125,-0.0442962646484375
1758447622825124400,5.064124267578125,-0.9464569091796875,-0.2960968017578125,-0.0477142333984375
1758447622835097300,5.074097412109375,-0.965240478515625,-0.2859039306640625,-0.0492401123046875
1758447622845070300,5.0840703125,-0.9698028564453125,-0.2857818603515625,-0.05145263671875
1758447622855042300,5.094042236328125,-0.9623870849609375,-0.2862396240234375,-0.04388427734375
1758447622865015300,5.104015380859375,-0.953704833984375,-0.2827911376953125,-0.03753662109375
1758447622874988300,5.11398828125,-0.947265625,-0.2813873291015625,-0.0363616943359375
1758447622884961300,5.123961181640625,-0.94207763671875,-0.282196044921875,-0.03509521484375
1758447622894933200,5.133933349609375,-0.9371337890625,-0.288116455078125,-0.038299560546875
1758447622904906200,5.14390625,-0.936065673828125,-0.294525146484375,-0.04730224609375
1758447622914879200,5.153879150390625,-0.945709228515625,-0.2976226806640625,-0.0538177490234375
1758447622924852500,5.1638525390625,-0.9482421875,-0.297027587890625,-0.0561065673828125
1758447622934824200,5.17382421875,-0.946136474609375,-0.2969818115234375,-0.0556640625
1758447622944797200,5.183797119140625,-0.9449310302734375,-0.293304443359375,-0.0501708984375
1758447622954770400,5.1937705078125,-0.94573974609375,-0.289031982421875,-0.0476837158203125
1758447622964743400,5.203743408203125,-0.9502716064453125,-0.2869720458984375,-0.0444183349609375
1758447622974715100,5.213715087890625,-0.9565887451171875,-0.28753662109375,-0.0420379638671875
1758447622984688400,5.2236884765625,-0.9620513916015625,-0.2905120849609375,-0.0432586669921875
1758447622994661400,5.233661376953125,-0.9544677734375,-0.2937774658203125,-0.0446014404296875
1758447623004634400,5.24363427734375,-0.9473876953125,-0.2941436767578125,-0.041534423828125
1758447623014606300,5.2536064453125,-0.9462738037109375,-0.292694091796875,-0.041107177734375
1758447623024579300,5.263579345703125,-0.9418792724609375,-0.288604736328125,-0.0393218994140625
1758447623034552300,5.27355224609375,-0.9368743896484375,-0.286865234375,-0.038482666015625
1758447623044525300,5.283525390625,-0.9326629638671875,-0.288787841796875,-0.039581298828125
1758447623054497000,5.2934970703125,-0.9309844970703125,-0.2904052734375,-0.043212890625
1758447623064469800,5.3034697265625,-0.93634033203125,-0.2911376953125,-0.047271728515625
1758447623074442800,5.31344287109375,-0.93359375,-0.291015625,-0.049224853515625
1758447623084415000,5.3234150390625,-0.93585205078125,-0.29046630859375,-0.048492431640625
1758447623094388000,5.333387939453125,-0.94769287109375,-0.2889556884765625,-0.045654296875
1758447623104360700,5.343360595703125,-0.958465576171875,-0.287078857421875,-0.043182373046875
1758447623114334000,5.353333984375,-0.978057861328125,-0.2851715087890625,-0.0399169921875
1758447623124306000,5.363305908203125,-0.984405517578125,-0.27587890625,-0.0377349853515625
1758447623134279000,5.37327880859375,-0.980743408203125,-0.2732696533203125,-0.0341949462890625
1758447623144252000,5.383251953125,-0.958984375,-0.2734527587890625,-0.030426025390625
1758447623154225000,5.393224853515625,-0.94598388671875,-0.285614013671875,-0.0308837890625
1758447623164196900,5.40319677734375,-0.9605712890625,-0.2860107421875,-0.035125732421875
1758447623174170000,5.413170166015625,-0.9830780029296875,-0.27227783203125,-0.036590576171875
1758447623184142800,5.423142822265625,-1.011993408203125,-0.259490966796875,-0.03094482421875
1758447623194115800,5.43311572265625,-1.0308837890625,-0.2471466064453125,-0.0207061767578125
1758447623204088000,5.443088134765625,-1.0521240234375,-0.2460479736328125,-0.0061798095703125
1758447623214061000,5.45306103515625,-1.0647125244140625,-0.25494384765625,-0.0132598876953125
1758447623224033800,5.46303369140625,-1.0355987548828125,-0.262298583984375,-0.0086669921875
1758447623234006800,5.4730068359375,-1.0048828125,-0.2759857177734375,0.009429931640625
1758447623243979000,5.48297900390625,-1.0190277099609375,-0.28704833984375,0.0085906982421875
1758447623253952000,5.492951904296875,-1.0287628173828125,-0.2837982177734375,-0.0040130615234375
1758447623263924700,5.5029248046875,-1.025360107421875,-0.2853546142578125,-0.015533447265625
1758447623273898000,5.51289794921875,-0.99981689453125,-0.293914794921875,-0.0322113037109375
1758447623283870000,5.522869873046875,-0.9546966552734375,-0.29180908203125,-0.1361083984375
1758447623293843000,5.532843017578125,-0.9723358154296875,-0.3035125732421875,-0.16864013671875
1758447623303816000,5.54281591796875,-0.9901275634765625,-0.3374786376953125,-0.1020660400390625
1758447623313789000,5.552788818359375,-1.002105712890625,-0.3466949462890625,-0.0733184814453125
1758447623323761000,5.562760986328125,-1.031982421875,-0.301239013671875,-0.02618408203125
1758447623333734100,5.572734130859375,-1.0177001953125,-0.2466278076171875,0.0005645751953125
1758447623343707000,5.582706787109375,-0.9462432861328125,-0.2682952880859375,-0.03466796875
1758447623353680000,5.592679931640625,-0.804840087890625,-0.2916717529296875,-0.0260009765625
1758447623363652000,5.602652099609375,-0.6825408935546875,-0.328369140625,0.0143280029296875
1758447623373625000,5.612625,-0.640106201171875,-0.348724365234375,0.0379486083984375
1758447623383597800,5.622597900390625,-0.6473846435546875,-0.35260009765625,0.07733154296875
1758447623393570000,5.632570068359375,-0.65447998046875,-0.3462677001953125,0.115692138671875
1758447623403543000,5.64254296875,-0.649261474609375,-0.3269805908203125,0.149322509765625
1758447623413516000,5.65251611328125,-0.751556396484375,-0.30718994140625,0.2429046630859375
1758447623423488800,5.66248876953125,-0.787200927734375,-0.3555145263671875,0.32635498046875
1758447623433461000,5.6724609375,-0.728973388671875,-0.423004150390625,0.4256591796875
1758447623443434000,5.68243408203125,-0.63555908203125,-0.401397705078125,0.363800048828125
1758447623453407000,5.692406982421875,-0.6256256103515625,-0.3251800537109375,0.2102813720703125
1758447623463380000,5.7023798828125,-0.68304443359375,-0.2451019287109375,0.1265106201171875
1758447623473352000,5.71235205078125,-0.7510833740234375,-0.243194580078125,0.1126556396484375
1758447623483325000,5.722324951171875,-0.7782745361328125,-0.260284423828125,0.130279541015625
1758447623493298000,5.7322978515625,-0.7091064453125,-0.2837982177734375,0.138824462890625
1758447623503271000,5.74227099609375,-0.6172637939453125,-0.3347930908203125,0.0657958984375
1758447623513243000,5.752242919921875,-0.5647430419921875,-0.312164306640625,0.0370941162109375
1758447623523216100,5.762216064453125,-0.516357421875,-0.293548583984375,0.0589599609375
1758447623533188900,5.77218896484375,-0.5670318603515625,-0.30999755859375,0.0943145751953125
1758447623543161900,5.782161865234375,-0.6611480712890625,-0.3270416259765625,0.1802520751953125
1758447623553134000,5.792134033203125,-0.7076873779296875,-0.3058319091796875,0.273529052734375
1758447623563107000,5.802107177734375,-0.7574310302734375,-0.2451934814453125,0.2998504638671875
1758447623573079800,5.812079833984375,-0.799224853515625,-0.1872406005859375,0.255401611328125
1758447623583052000,5.822052001953125,-0.860565185546875,-0.1639862060546875,0.1987152099609375
1758447623593025000,5.83202490234375,-0.8985443115234375,-0.142242431640625,0.1808929443359375
1758447623602998000,5.841998046875,-0.98065185546875,-0.1102294921875,0.1624755859375
1758447623612970800,5.851970703125,-0.876251220703125,-0.0541229248046875,0.05999755859375
1758447623622943000,5.86194287109375,-0.8438568115234375,-0.052459716796875,-0.0507049560546875
1758447623632916000,5.871916015625,-0.8627777099609375,-0.0802459716796875,-0.0879974365234375
1758447623642889000,5.881888916015625,-0.9867095947265625,-0.0673065185546875,-0.094696044921875
1758447623652862000,5.891862060546875,-0.910003662109375,-0.0396270751953125,-0.128143310546875
1758447623662834000,5.901833984375,-0.8240203857421875,-0.03851318359375,-0.1478271484375
1758447623672807000,5.911806884765625,-0.810394287109375,-0.0024566650390625,-0.0828857421875
1758447623682780000,5.92177978515625,-0.7303009033203125,0.012786865234375,-0.0533905029296875
1758447623692753000,5.9317529296875,-0.689849853515625,0.0191192626953125,-0.052734375
1758447623702724900,5.941724853515625,-0.5985260009765625,0.0626373291015625,-0.09552001953125
1758447623712697900,5.95169775390625,-0.5390777587890625,0.087921142578125,-0.170989990234375
1758447623722671000,5.961671142578125,-0.519012451171875,0.0943145751953125,-0.220123291015625
1758447623732642800,5.971642822265625,-0.584716796875,-0.00457763671875,-0.2603912353515625
1758447623742616000,5.981615966796875,-0.6539154052734375,-0.04693603515625,-0.2266693115234375
1758447623752589000,5.991589111328125,-0.7353973388671875,-0.06927490234375,0.00030517578125
1758447623762562000,6.00156201171875,-0.79071044921875,-0.01898193359375,-0.097991943359375
1758447623772534000,6.011533935546875,-0.8356475830078125,0.1038818359375,-0.344207763671875
1758447623782507000,6.021507080078125,-0.9256134033203125,0.1649932861328125,-0.362945556640625
1758447623792480000,6.03147998046875,-0.9149627685546875,0.21209716796875,-0.291900634765625
1758447623802453000,6.041452880859375,-0.822052001953125,0.27081298828125,-0.243621826171875
1758447623812425000,6.051425048828125,-0.7288055419921875,0.3090057373046875,-0.2193756103515625
1758447623822398000,6.06139794921875,-0.6410675048828125,0.349365234375,-0.2518768310546875
1758447623832371000,6.071370849609375,-0.612548828125,0.3560028076171875,-0.32659912109375
1758447623842344000,6.081343994140625,-0.6543731689453125,0.3654937744140625,-0.417633056640625
1758447623852316000,6.09131591796875,-0.730987548828125,0.395477294921875,-0.6355438232421875
1758447623862289000,6.101288818359375,-0.8363189697265625,0.3182373046875,-0.833709716796875
1758447623872262000,6.111261962890625,-0.862060546875,0.2208251953125,-0.9132843017578125
1758447623882233900,6.12123388671875,-0.8003692626953125,0.2149658203125,-0.9267120361328125
1758447623892206800,6.131206787109375,-0.73040771484375,0.2471160888671875,-0.8914947509765625
1758447623902179800,6.141179931640625,-0.719635009765625,0.267730712890625,-0.8998260498046875
1758447623912153000,6.151153076171875,-0.6944122314453125,0.3096466064453125,-0.956756591796875
1758447623922124800,6.161124755859375,-0.57891845703125,0.35504150390625,-1.013641357421875
1758447623932097800,6.171097900390625,-0.4936065673828125,0.35321044921875,-1.0990142822265625
1758447623942071000,6.181071044921875,-0.42156982421875,0.3299713134765625,-1.1893768310546875
1758447623952044000,6.1910439453125,-0.3315887451171875,0.2818603515625,-1.2999114990234375
1758447623962015700,6.201015625,-0.25885009765625,0.229888916015625,-1.3885498046875
1758447623971989000,6.210989013671875,-0.250091552734375,0.19976806640625,-1.43951416015625
1758447623981962000,6.2209619140625,-0.366546630859375,0.1715850830078125,-1.485015869140625
1758447623991935000,6.23093505859375,-0.5261077880859375,0.1665496826171875,-1.54095458984375
1758447624001907000,6.240906982421875,-0.4987945556640625,0.20562744140625,-1.5654754638671875
1758447624011880000,6.2508798828125,-0.331146240234375,0.21307373046875,-1.56842041015625
1758447624021853000,6.26085302734375,-0.1639251708984375,0.2283782958984375,-1.5508270263671875
1758447624031825000,6.270824951171875,-0.060791015625,0.261322021484375,-1.47760009765625
1758447624041798000,6.2807978515625,-0.0001983642578125,0.255828857421875,-1.4259185791015625
1758447624051771600,6.290771728515625,0.0565032958984375,0.21856689453125,-1.41607666015625
1758447624061744600,6.30074462890625,0.1272125244140625,0.181396484375,-1.3747406005859375
1758447624071716900,6.310716796875,0.12060546875,0.1913909912109375,-1.352935791015625
1758447624081689600,6.320689697265625,0.058929443359375,0.2515411376953125,-1.3612060546875
1758447624091662600,6.33066259765625,0.016326904296875,0.35693359375,-1.3629608154296875
1758447624101635600,6.340635498046875,0.0370330810546875,0.4515380859375,-1.32464599609375
1758447624111607800,6.35060791015625,0.108245849609375,0.470245361328125,-1.2667083740234375
1758447624121580500,6.36058056640625,0.2056884765625,0.426422119140625,-1.257110595703125
1758447624131553500,6.370553466796875,0.3300933837890625,0.368896484375,-1.2612152099609375
1758447624141526800,6.38052685546875,0.45172119140625,0.361846923828125,-1.2176055908203125
1758447624151498800,6.390498779296875,0.493560791015625,0.353363037109375,-1.115447998046875
1758447624161471500,6.400471435546875,0.4855499267578125,0.339111328125,-1.0256805419921875
1758447624171444700,6.41044482421875,0.4365997314453125,0.3450164794921875,-1.0145416259765625
1758447624181416700,6.420416748046875,0.360870361328125,0.2895050048828125,-1.08502197265625
1758447624191389700,6.4303896484375,0.33758544921875,0.2188262939453125,-1.18231201171875
1758447624201362700,6.44036279296875,0.3787078857421875,0.1685638427734375,-1.198638916015625
1758447624211335700,6.450335693359375,0.4103240966796875,0.1335906982421875,-1.179107666015625
1758447624221307600,6.4603076171875,0.3971405029296875,0.1062469482421875,-1.155792236328125
1758447624231280600,6.47028076171875,0.3556976318359375,0.1009063720703125,-1.126007080078125
1758447624241253600,6.480253662109375,0.3218841552734375,0.12188720703125,-1.1122894287109375
1758447624251226600,6.4902265625,0.317047119140625,0.158416748046875,-1.078277587890625
1758447624261198800,6.50019873046875,0.326019287109375,0.2027740478515625,-1.0196075439453125
1758447624271171600,6.510171630859375,0.347503662109375,0.2803497314453125,-0.92523193359375
1758447624281144600,6.52014453125,0.3889007568359375,0.3462371826171875,-0.84564208984375
1758447624291116800,6.53011669921875,0.4546051025390625,0.3186798095703125,-0.888916015625
1758447624301089800,6.54008984375,0.3634796142578125,0.1877899169921875,-1.1520538330078125
1758447624311062500,6.5500625,0.171356201171875,0.237945556640625,-1.0008697509765625
1758447624321035500,6.560035400390625,0.118133544921875,0.3998260498046875,-0.9160308837890625
1758447624331007700,6.5700078125,0.1020660400390625,0.0206756591796875,-1.2315826416015625
1758447624340980700,6.579980712890625,-0.1587066650390625,0.16571044921875,-1.3275909423828125
1758447624350953500,6.589953369140625,-0.1662445068359375,0.3166656494140625,-1.24298095703125
1758447624360926700,6.5999267578125,-0.0464630126953125,0.2901458740234375,-1.0466156005859375
1758447624370898700,6.609898681640625,-0.0936279296875,0.2862091064453125,-1.0010223388671875
1758447624380871700,6.61987158203125,-0.1454315185546875,0.300567626953125,-0.929412841796875
1758447624390844700,6.6298447265625,-0.1520843505859375,0.3875579833984375,-0.6878509521484375
1758447624400816600,6.639816650390625,-0.134796142578125,0.359771728515625,-0.5655975341796875
1758447624410789600,6.64978955078125,-0.1796417236328125,0.3952178955078125,-0.556549072265625
1758447624420763000,6.659762939453125,-0.271942138671875,0.470550537109375,-0.5643157958984375
1758447624430735600,6.669735595703125,-0.181884765625,0.481903076171875,-0.536651611328125
1758447624440707600,6.67970751953125,-0.061492919921875,0.56805419921875,-0.44500732421875
1758447624450680800,6.689680908203125,0.0102996826171875,0.6116180419921875,-0.4628753662109375
1758447624460653800,6.69965380859375,0.0240631103515625,0.506378173828125,-0.57220458984375
1758447624470626600,6.70962646484375,0.001708984375,0.476348876953125,-0.659149169921875
1758447624480598800,6.719598876953125,0.0321502685546875,0.489410400390625,-0.7635955810546875
1758447624490571800,6.72957177734375,-0.0715179443359375,0.612152099609375,-0.7915496826171875
1758447624500544800,6.739544677734375,-0.088134765625,0.7003631591796875,-0.6212005615234375
1758447624510516700,6.749516845703125,0.0791015625,0.7378387451171875,-0.59149169921875
1758447624520489700,6.75948974609375,0.104278564453125,0.7591552734375,-0.457672119140625
1758447624530462700,6.769462646484375,0.0374298095703125,0.7158660888671875,-0.1960906982421875
1758447624540435700,6.779435791015625,-0.003814697265625,0.6419830322265625,-0.38702392578125
1758447624550407700,6.78940771484375,-0.1214447021484375,0.601806640625,-0.748504638671875
1758447624560380700,6.799380615234375,0.0347137451171875,0.3602447509765625,-0.85748291015625
1758447624570353700,6.809353759765625,0.283355712890625,0.1634674072265625,-0.68890380859375
1758447624580327000,6.819326904296875,0.159423828125,0.1240081787109375,-0.712188720703125
1758447624590298600,6.829298583984375,0.03546142578125,0.172119140625,-0.735595703125
1758447624600271600,6.839271728515625,0.1349945068359375,0.328155517578125,-0.71484375
1758447624610244900,6.849244873046875,0.253997802734375,0.4834442138671875,-0.7602081298828125
1758447624620216600,6.859216552734375,0.3237762451171875,0.6579742431640625,-0.7757110595703125
1758447624630189600,6.869189453125,0.197113037109375,0.7827606201171875,-0.5543670654296875
1758447624640162800,6.879162841796875,0.0439300537109375,0.8007049560546875,-0.58087158203125
1758447624650135800,6.8891357421875,-0.018402099609375,0.8210906982421875,-0.5870513916015625
1758447624660107500,6.899107421875,-0.0809326171875,0.8758392333984375,-0.5811004638671875
1758447624670080800,6.909080810546875,-0.2296295166015625,0.8986053466796875,-0.576995849609375
1758447624680053800,6.9190537109375,-0.428955078125,0.811187744140625,-0.6409454345703125
1758447624690026800,6.92902685546875,-0.4274139404296875,0.5234375,-0.758544921875
1758447624699998700,6.938998779296875,-0.32403564453125,0.522857666015625,-0.704437255859375
1758447624709971700,6.9489716796875,-0.2221832275390625,0.545867919921875,-0.6014556884765625
1758447624719944700,6.95894482421875,-0.1207427978515625,0.532012939453125,-0.489654541015625
1758447624729916700,6.968916748046875,-0.0374603271484375,0.49072265625,-0.3678436279296875
1758447624739889700,6.9788896484375,0.2008514404296875,0.42510986328125,-0.2609710693359375
1758447624749862700,6.988862548828125,0.6456756591796875,0.44580078125,-0.148223876953125
1758447624759835600,6.998835693359375,0.6374664306640625,0.430572509765625,-0.072296142578125
1758447624769807600,7.0088076171875,0.32623291015625,0.371124267578125,-0.0343475341796875
1758447624779780600,7.018780517578125,0.140869140625,0.302886962890625,-0.0135650634765625
1758447624789753600,7.028753662109375,0.0336151123046875,0.233062744140625,-0.01629638671875
1758447624799726800,7.038726806640625,-0.0163421630859375,0.188018798828125,-0.01666259765625
1758447624809698600,7.048698486328125,0.0037841796875,0.4098968505859375,-0.023101806640625
1758447624819671600,7.058671630859375,-0.0404052734375,2.4384307861328125,0.407470703125
1758447624829644800,7.068644775390625,-0.1634521484375,4.0880279541015625,1.3266448974609375
1758447624839616800,7.07861669921875,-0.077301025390625,4.2301025390625,1.01300048828125
1758447624849589500,7.088589599609375,0.2322235107421875,3.28125,-0.0882568359375
1758447624859562800,7.098562744140625,0.1262359619140625,2.6305389404296875,-0.3045806884765625
1758447624869535700,7.10853564453125,-0.2056732177734375,1.880859375,-0.280059814453125
1758447624879507700,7.1185078125,-0.3574066162109375,1.243255615234375,0.0107879638671875
1758447624889480700,7.128480712890625,-0.3808746337890625,0.9067535400390625,0.4052886962890625
1758447624899453700,7.13845361328125,-0.559173583984375,0.7058563232421875,0.55194091796875
1758447624909425700,7.14842578125,-0.5751495361328125,0.561553955078125,0.519561767578125
1758447624919399000,7.15839892578125,-0.43524169921875,0.41363525390625,0.417388916015625
1758447624929371600,7.16837158203125,-0.2671966552734375,0.3487091064453125,0.4240875244140625
1758447624939344600,7.1783447265625,-0.0803375244140625,0.463287353515625,0.52447509765625
1758447624949316900,7.18831689453125,0.064666748046875,0.7142486572265625,0.5959320068359375
1758447624959289900,7.198289794921875,0.09539794921875,0.8685455322265625,0.5660552978515625
1758447624969262600,7.2082626953125,0.0844879150390625,0.959014892578125,0.5263519287109375
1758447624979235600,7.218235595703125,0.0743560791015625,1.0277252197265625,0.4851837158203125
1758447624989207800,7.228207763671875,0.0652008056640625,1.037689208984375,0.4386138916015625
1758447624999180800,7.238180908203125,0.049285888671875,1.012847900390625,0.395660400390625
1758447625009153500,7.248153564453125,0.01800537109375,0.97955322265625,0.3551177978515625
1758447625019125800,7.258125732421875,-0.022186279296875,0.974639892578125,0.337677001953125
1758447625029098800,7.2680986328125,-0.067047119140625,0.98297119140625,0.3232421875
1758447625039071700,7.27807177734375,-0.1098175048828125,0.9770965576171875,0.286529541015625
1758447625049044700,7.288044677734375,-0.1490020751953125,0.972198486328125,0.2691192626953125
1758447625059016700,7.2980166015625,-0.152374267578125,0.9678497314453125,0.2463226318359375
1758447625068989400,7.307989501953125,-0.13330078125,0.9403533935546875,0.219024658203125
1758447625078962700,7.317962646484375,-0.123565673828125,0.9401397705078125,0.2144927978515625
1758447625088934700,7.3279345703125,-0.12725830078125,0.9605560302734375,0.228118896484375
1758447625098907600,7.33790771484375,-0.1024322509765625,0.968963623046875,0.22698974609375
1758447625108880600,7.347880615234375,-0.089263916015625,0.9665679931640625,0.2203369140625
1758447625118853600,7.357853515625,-0.0622100830078125,0.9665374755859375,0.2143096923828125
1758447625128825600,7.36782568359375,-0.0224609375,0.9729461669921875,0.2094268798828125
1758447625138798600,7.377798583984375,-0.0025787353515625,0.986480712890625,0.220306396484375
1758447625148771600,7.387771484375,-0.0005950927734375,0.9900360107421875,0.227752685546875
1758447625158743600,7.39774365234375,-0.00006103515625,0.9831085205078125,0.2290191650390625
1758447625168716500,7.407716552734375,-0.0000457763671875,0.967926025390625,0.22772216796875
1758447625178689500,7.417689453125,-0.0033416748046875,0.960693359375,0.2397613525390625
1758447625188662500,7.42766259765625,-0.0084686279296875,0.9620208740234375,0.2630462646484375
1758447625198634800,7.437634765625,-0.010284423828125,0.96002197265625,0.2855072021484375
1758447625208607700,7.447607666015625,-0.0113677978515625,0.954681396484375,0.3021240234375
1758447625218580500,7.45758056640625,-0.006866455078125,0.945709228515625,0.3104400634765625
1758447625228553500,7.467553466796875,-0.001678466796875,0.941131591796875,0.311553955078125
1758447625238525700,7.477525634765625,-0.0013885498046875,0.9471282958984375,0.3115386962890625
1758447625248498700,7.487498779296875,-0.0033111572265625,0.954071044921875,0.304656982421875
1758447625258471400,7.497471435546875,-0.0141143798828125,0.9609832763671875,0.297607421875
1758447625268443600,7.507443603515625,-0.03302001953125,0.96142578125,0.2923431396484375
1758447625278416600,7.517416748046875,-0.0511627197265625,0.959930419921875,0.2829437255859375
1758447625288389600,7.5273896484375,-0.066375732421875,0.9522705078125,0.2780609130859375
1758447625298362400,7.5373623046875,-0.0745391845703125,0.9447479248046875,0.275146484375
1758447625308334600,7.54733447265625,-0.0770416259765625,0.9448089599609375,0.272003173828125
1758447625318307600,7.5573076171875,-0.0777435302734375,0.9512176513671875,0.2731170654296875
1758447625328280600,7.567280517578125,-0.07666015625,0.9520416259765625,0.2747650146484375
1758447625338252500,7.57725244140625,-0.07421875,0.951080322265625,0.277069091796875
1758447625348225500,7.5872255859375,-0.072113037109375,0.9556884765625,0.28436279296875
1758447625358198500,7.597198486328125,-0.0722808837890625,0.9546661376953125,0.291595458984375
1758447625368171800,7.607171875,-0.0740966796875,0.952301025390625,0.2991485595703125
1758447625378143500,7.6171435546875,-0.077056884765625,0.952606201171875,0.304290771484375
1758447625388116500,7.627116455078125,-0.07568359375,0.9473876953125,0.3031768798828125
1758447625398089700,7.63708984375,-0.06982421875,0.9476470947265625,0.3014373779296875
1758447625408061400,7.6470615234375,-0.0714263916015625,0.95904541015625,0.3094024658203125
1758447625418034400,7.657034423828125,-0.0744781494140625,0.963531494140625,0.31634521484375
1758447625428007700,7.667007568359375,-0.068115234375,0.954864501953125,0.3122100830078125
1758447625437980700,7.676980712890625,-0.0680389404296875,0.9494781494140625,0.313812255859375
1758447625447952400,7.686952392578125,-0.072021484375,0.9511260986328125,0.3240814208984375
1758447625457925600,7.696925537109375,-0.0665435791015625,0.9621429443359375,0.327056884765625
1758447625467898600,7.706898681640625,-0.058929443359375,0.9609375,0.304840087890625
1758447625477871600,7.71687158203125,-0.0593414306640625,0.94830322265625,0.296722412109375
1758447625487843600,7.726843505859375,-0.0805511474609375,0.9674835205078125,0.3312835693359375
1758447625497816600,7.736816650390625,-0.108245849609375,0.9822845458984375,0.36468505859375
1758447625507789600,7.74678955078125,-0.108856201171875,0.973785400390625,0.359954833984375
1758447625517761800,7.75676171875,-0.0973358154296875,0.9459686279296875,0.335723876953125
1758447625527734500,7.766734619140625,-0.06884765625,0.8927764892578125,0.2901153564453125
1758447625537707500,7.77670751953125,-0.033233642578125,0.83770751953125,0.2193756103515625
1758447625547679700,7.7866796875,-0.012115478515625,0.8181610107421875,0.1645050048828125
1758447625557652700,7.79665283203125,-0.0260772705078125,0.8660125732421875,0.1642913818359375
1758447625567625500,7.80662548828125,-0.0687255859375,0.9564361572265625,0.19818115234375
1758447625577598500,7.816598388671875,-0.1031036376953125,1.0059967041015625,0.2262725830078125
1758447625587570700,7.82657080078125,-0.1150970458984375,1.0081329345703125,0.2559814453125
1758447625597543400,7.83654345703125,-0.10400390625,1.003143310546875,0.3022613525390625
1758447625607516400,7.846516357421875,-0.077545166015625,0.9951171875,0.3394775390625
1758447625617489700,7.85648974609375,-0.0446929931640625,0.9793853759765625,0.362457275390625
1758447625627461600,7.866461669921875,-0.01953125,0.971893310546875,0.3825225830078125
1758447625637434400,7.876434326171875,0.00396728515625,0.9658660888671875,0.395538330078125
1758447625647407600,7.88640771484375,0.02777099609375,0.9554901123046875,0.3992767333984375
1758447625657379600,7.896379638671875,0.0417022705078125,0.94635009765625,0.391998291015625
1758447625667352600,7.9063525390625,0.040283203125,0.9388275146484375,0.374603271484375
1758447625677325600,7.91632568359375,0.02044677734375,0.9297332763671875,0.3483428955078125
1758447625687298600,7.926298583984375,-0.0167999267578125,0.9250335693359375,0.3230438232421875
1758447625697270500,7.9362705078125,-0.0487518310546875,0.923583984375,0.301300048828125
1758447625707243800,7.946243896484375,-0.078948974609375,0.933837890625,0.2891693115234375
1758447625717216500,7.956216552734375,-0.10284423828125,0.9520721435546875,0.27874755859375
1758447625727188500,7.9661884765625,-0.1088409423828125,0.956787109375,0.256591796875
1758447625737161700,7.97616162109375,-0.111419677734375,0.948883056640625,0.2368011474609375
1758447625747134700,7.986134765625,-0.1214447021484375,0.9430694580078125,0.223297119140625
1758447625757107500,7.996107421875,-0.1270294189453125,0.93927001953125,0.220550537109375
1758447625767079700,8.00607958984375,-0.1297454833984375,0.939361572265625,0.21624755859375
1758447625777052700,8.016052734375,-0.12957763671875,0.945281982421875,0.2244110107421875
1758447625787025700,8.026025634765626,-0.125396728515625,0.951507568359375,0.2410430908203125
1758447625796998400,8.035998291015625,-0.1254119873046875,0.9545745849609375,0.2641754150390625
1758447625806970600,8.045970703125,-0.1176300048828125,0.9563751220703125,0.2888031005859375
1758447625816943600,8.055943603515624,-0.103240966796875,0.9518585205078125,0.309234619140625
1758447625826916600,8.06591650390625,-0.08685302734375,0.9503936767578125,0.3322296142578125
1758447625836889600,8.0758896484375,-0.0675201416015625,0.951141357421875,0.3534088134765625
1758447625846861600,8.085861572265625,-0.0412139892578125,0.94512939453125,0.361724853515625
1758447625856834600,8.09583447265625,-0.0144195556640625,0.940521240234375,0.36614990234375
1758447625866807800,8.105807861328126,-0.0002899169921875,0.939117431640625,0.362640380859375
1758447625876780500,8.115780517578125,0.0059967041015625,0.9349212646484375,0.352691650390625
1758447625886752500,8.12575244140625,0.002166748046875,0.942169189453125,0.3441009521484375
1758447625896725800,8.135725830078124,-0.0074615478515625,0.9559478759765625,0.3371429443359375
1758447625906698800,8.14569873046875,-0.0180511474609375,0.9615936279296875,0.330474853515625
1758447625916670500,8.15567041015625,-0.02386474609375,0.96185302734375,0.322296142578125
1758447625926643700,8.165643798828125,-0.029571533203125,0.961029052734375,0.315216064453125
1758447625936616700,8.17561669921875,-0.0382080078125,0.96246337890625,0.3069915771484375
1758447625946589700,8.185589599609376,-0.046173095703125,0.962890625,0.295318603515625
1758447625956561700,8.195561767578125,-0.0547332763671875,0.9573974609375,0.2845306396484375
1758447625966534700,8.20553466796875,-0.066925048828125,0.9482269287109375,0.279937744140625
1758447625976507600,8.215507568359374,-0.08013916015625,0.9404296875,0.281829833984375
1758447625986480600,8.225480712890626,-0.090087890625,0.9378814697265625,0.2892303466796875
1758447625996452600,8.23545263671875,-0.0982818603515625,0.9349822998046875,0.295440673828125
1758447626006425600,8.245425537109375,-0.1047821044921875,0.9329681396484375,0.302642822265625
1758447626016398600,8.255398681640624,-0.1108856201171875,0.9415283203125,0.31292724609375
1758447626026371600,8.26537158203125,-0.113555908203125,0.948577880859375,0.320159912109375
1758447626036343600,8.275343505859375,-0.110595703125,0.94683837890625,0.32196044921875
1758447626046316500,8.285316650390625,-0.1030120849609375,0.9395599365234375,0.3187713623046875
1758447626056290000,8.2952900390625,-0.089447021484375,0.94036865234375,0.3151092529296875
1758447626066263000,8.305262939453126,-0.078277587890625,0.9431610107421875,0.3101043701171875
1758447626076235000,8.315235107421875,-0.06878662109375,0.94659423828125,0.3029022216796875
1758447626086208000,8.3252080078125,-0.065673828125,0.9501800537109375,0.2969207763671875
1758447626096181200,8.33518115234375,-0.064971923828125,0.9535980224609375,0.2967987060546875
1758447626106153000,8.345153076171876,-0.0661773681640625,0.9532623291015625,0.3018035888671875
1758447626116126000,8.3551259765625,-0.06304931640625,0.9506378173828125,0.3061981201171875
1758447626126099200,8.36509912109375,-0.05718994140625,0.95123291015625,0.3045501708984375
1758447626136072200,8.375072265625,-0.0501251220703125,0.9482421875,0.3043670654296875
1758447626146044000,8.3850439453125,-0.0451507568359375,0.9465179443359375,0.2980194091796875
1758447626156017200,8.39501708984375,-0.0436859130859375,0.948486328125,0.294281005859375
1758447626165990100,8.404990234375,-0.046295166015625,0.95263671875,0.29522705078125
1758447626175963100,8.414963134765625,-0.053009033203125,0.9545440673828125,0.295257568359375
1758447626185935000,8.42493505859375,-0.0596160888671875,0.952545166015625,0.2946319580078125
1758447626195908000,8.434908203125,-0.064971923828125,0.9497528076171875,0.2959442138671875
1758447626205881000,8.444881103515625,-0.0652618408203125,0.9403228759765625,0.2936553955078125
1758447626215854000,8.45485400390625,-0.0639190673828125,0.937042236328125,0.2912445068359375
1758447626225826000,8.464825927734376,-0.06427001953125,0.9458160400390625,0.296295166015625
1758447626235799000,8.474799072265625,-0.0646820068359375,0.9576568603515625,0.298492431640625
1758447626245772000,8.48477197265625,-0.0586090087890625,0.96258544921875,0.29852294921875
1758447626255745300,8.494745361328125,-0.0543212890625,0.9588165283203125,0.2938690185546875
1758447626265717000,8.504717041015626,-0.0509490966796875,0.9558868408203125,0.28997802734375
1758447626275690000,8.51468994140625,-0.05096435546875,0.958648681640625,0.2846221923828125
1758447626285663200,8.524663330078125,-0.053924560546875,0.96295166015625,0.283203125
1758447626295635000,8.534635009765625,-0.0561065673828125,0.965728759765625,0.2872314453125
1758447626305608000,8.54460791015625,-0.0564727783203125,0.96240234375,0.2891693115234375
1758447626315581200,8.554581298828126,-0.060760498046875,0.9534454345703125,0.2932586669921875
1758447626325554200,8.56455419921875,-0.0663299560546875,0.946075439453125,0.294525146484375
1758447626335526000,8.57452587890625,-0.0744171142578125,0.9408721923828125,0.296905517578125
1758447626345499100,8.5844990234375,-0.080963134765625,0.94012451171875,0.3044281005859375
1758447626355472100,8.59447216796875,-0.086883544921875,0.943084716796875,0.3137969970703125
1758447626365445000,8.604445068359375,-0.089508056640625,0.9427032470703125,0.3210601806640625
1758447626375417000,8.6144169921875,-0.087646484375,0.9366912841796875,0.3216552734375
1758447626385390000,8.62439013671875,-0.0839996337890625,0.9329681396484375,0.3182830810546875
1758447626395363000,8.634363037109376,-0.081787109375,0.9387969970703125,0.3170013427734375
1758447626405336000,8.644336181640625,-0.08355712890625,0.943939208984375,0.31341552734375
1758447626415308000,8.65430810546875,-0.084381103515625,0.948211669921875,0.31317138671875
1758447626425281000,8.664281005859374,-0.0836639404296875,0.950531005859375,0.3136444091796875
1758447626435254000,8.67425390625,-0.08154296875,0.947235107421875,0.3123931884765625
1758447626445226000,8.68422607421875,-0.0746307373046875,0.9420928955078125,0.3119659423828125
1758447626455199000,8.694198974609375,-0.0690155029296875,0.94183349609375,0.31170654296875
1758447626465172000,8.704171875,-0.063934326171875,0.9458465576171875,0.3111419677734375
1758447626475145200,8.714145263671876,-0.0635833740234375,0.951324462890625,0.3118896484375
1758447626485117000,8.724116943359375,-0.0658416748046875,0.9539794921875,0.3117523193359375
1758447626495090000,8.73408984375,-0.0684661865234375,0.9553070068359375,0.312713623046875
1758447626505063200,8.744063232421874,-0.0719451904296875,0.94952392578125,0.3146209716796875
1758447626515036200,8.7540361328125,-0.0735626220703125,0.9420318603515625,0.3161163330078125
1758447626525008000,8.7640078125,-0.0715789794921875,0.938995361328125,0.3143463134765625
1758447626534981000,8.773981201171875,-0.0726318359375,0.9398040771484375,0.311981201171875
1758447626544954000,8.7839541015625,-0.0778656005859375,0.94256591796875,0.3098297119140625
1758447626554927000,8.793927001953126,-0.0821685791015625,0.9421539306640625,0.3076629638671875
1758447626564899000,8.803899169921875,-0.0870208740234375,0.94384765625,0.3048095703125
1758447626574872000,8.8138720703125,-0.0894775390625,0.94549560546875,0.3059539794921875
1758447626584845000,8.823844970703124,-0.0883026123046875,0.946319580078125,0.303314208984375
1758447626594817300,8.8338173828125,-0.0870819091796875,0.9489288330078125,0.305328369140625
1758447626604790000,8.8437900390625,-0.0864105224609375,0.9510955810546875,0.307708740234375
1758447626614763000,8.853762939453125,-0.07977294921875,0.94635009765625,0.3050384521484375
1758447626624736000,8.863736083984374,-0.07440185546875,0.9420013427734375,0.3001861572265625
1758447626634708200,8.873708251953126,-0.0678558349609375,0.944671630859375,0.295745849609375
1758447626644681000,8.883680908203125,-0.0680084228515625,0.9480743408203125,0.294525146484375
1758447626654654000,8.893654052734375,-0.070068359375,0.95318603515625,0.2979736328125
1758447626664626200,8.903626220703124,-0.070648193359375,0.9554901123046875,0.3033294677734375
1758447626674599200,8.91359912109375,-0.06982421875,0.95269775390625,0.3070526123046875
1758447626684572000,8.923572021484375,-0.0665740966796875,0.9454193115234375,0.3082733154296875
1758447626694545200,8.933545166015625,-0.064483642578125,0.9428558349609375,0.307403564453125
1758447626704517000,8.94351708984375,-0.067474365234375,0.9493255615234375,0.3098602294921875
1758447626714489900,8.95348974609375,-0.06982421875,0.955535888671875,0.3130340576171875
1758447626724463000,8.963463134765625,-0.073944091796875,0.9521331787109375,0.3146820068359375
1758447626734436000,8.97343603515625,-0.0729827880859375,0.946044921875,0.314788818359375
1758447626744408000,8.983407958984374,-0.069793701171875,0.9413604736328125,0.31024169921875
1758447626754381000,8.993381103515626,-0.068389892578125,0.940704345703125,0.3025970458984375
1758447626764354000,9.00335400390625,-0.0696563720703125,0.9433746337890625,0.2983856201171875
1758447626774326000,9.013325927734375,-0.0744171142578125,0.9448089599609375,0.294403076171875
1758447626784299000,9.023299072265624,-0.0790557861328125,0.9439544677734375,0.2914276123046875
1758447626794272000,9.03327197265625,-0.0830230712890625,0.9427032470703125,0.292724609375
1758447626804245000,9.043244873046875,-0.0845489501953125,0.9453582763671875,0.2978668212890625
1758447626814217200,9.05321728515625,-0.082122802734375,0.9471588134765625,0.299102783203125
1758447626824190200,9.063190185546874,-0.072296142578125,0.9483795166015625,0.298431396484375
1758447626834163000,9.073162841796876,-0.06378173828125,0.9501953125,0.2981719970703125
1758447626844136000,9.083135986328125,-0.06085205078125,0.95526123046875,0.29931640625
1758447626854108200,9.093108154296875,-0.0653228759765625,0.95977783203125,0.3018798828125
1758447626864081200,9.1030810546875,-0.06915283203125,0.95587158203125,0.3076629638671875
1758447626874054000,9.113053955078126,-0.0697784423828125,0.949371337890625,0.3119659423828125
1758447626884026000,9.123026123046875,-0.0663299560546875,0.9443511962890625,0.313385009765625
1758447626893999000,9.1329990234375,-0.0620269775390625,0.944305419921875,0.3156890869140625
1758447626903972000,9.14297216796875,-0.0613555908203125,0.9467926025390625,0.3169708251953125
1758447626913944800,9.15294482421875,-0.0612030029296875,0.947021484375,0.3153533935546875
1758447626923917000,9.1629169921875,-0.0620574951171875,0.9464263916015625,0.31231689453125
1758447626933890000,9.17289013671875,-0.0650177001953125,0.944366455078125,0.3091888427734375
1758447626943863000,9.182863037109374,-0.0696868896484375,0.9455413818359375,0.3052215576171875
1758447626953835000,9.1928349609375,-0.0747528076171875,0.9486541748046875,0.30419921875
1758447626963808000,9.20280810546875,-0.081268310546875,0.9490509033203125,0.3040618896484375
1758447626973781000,9.212781005859375,-0.0870208740234375,0.94805908203125,0.30401611328125
1758447626983754200,9.222754150390625,-0.0899505615234375,0.944610595703125,0.3050384521484375
1758447626993726000,9.232725830078126,-0.08990478515625,0.9435577392578125,0.30499267578125
1758447627003699000,9.242698974609375,-0.0886688232421875,0.9440765380859375,0.3038482666015625
1758447627013672200,9.252672119140625,-0.087493896484375,0.944854736328125,0.3053436279296875
1758447627023644000,9.262643798828124,-0.085601806640625,0.9449310302734375,0.3089447021484375
1758447627033617000,9.272616943359376,-0.0811920166015625,0.9454498291015625,0.31256103515625
1758447627043590100,9.282590087890625,-0.076873779296875,0.946197509765625,0.3152923583984375
1758447627053562000,9.29256201171875,-0.0745849609375,0.9467010498046875,0.3160400390625
1758447627063534300,9.302534423828124,-0.0732574462890625,0.946075439453125,0.31378173828125
1758447627073507000,9.312507080078126,-0.07281494140625,0.9442291259765625,0.3136138916015625
1758447627083480000,9.32247998046875,-0.0751800537109375,0.942626953125,0.309600830078125
1758447627093452300,9.332452392578125,-0.0717926025390625,0.9421539306640625,0.3031005859375
1758447627103425300,9.34242529296875,-0.06927490234375,0.9451751708984375,0.29791259765625
1758447627113398000,9.35239794921875,-0.06903076171875,0.9469146728515625,0.29119873046875
1758447627123371000,9.36237109375,-0.068206787109375,0.9488983154296875,0.2862701416015625
1758447627133343200,9.37234326171875,-0.0706634521484375,0.9546356201171875,0.2850799560546875
1758447627143316200,9.382316162109374,-0.07110595703125,0.95892333984375,0.28948974609375
1758447627153289000,9.3922890625,-0.071868896484375,0.9569244384765625,0.2949676513671875
1758447627163261200,9.40226123046875,-0.0687103271484375,0.9529876708984375,0.29913330078125
1758447627173234200,9.412234130859375,-0.061798095703125,0.951751708984375,0.3019866943359375
1758447627183207200,9.422207275390624,-0.0571441650390625,0.9520416259765625,0.3042144775390625
1758447627193180200,9.43218017578125,-0.054656982421875,0.95245361328125,0.302642822265625
1758447627203152100,9.442152099609375,-0.057952880859375,0.9517059326171875,0.3024444580078125
1758447627213125000,9.452125,-0.0667266845703125,0.947052001953125,0.300811767578125
1758447627223098400,9.462098388671874,-0.0757904052734375,0.94195556640625,0.2989349365234375
1758447627233070000,9.472070068359375,-0.0795745849609375,0.9412994384765625,0.2972259521484375
1758447627243043000,9.48204296875,-0.0807037353515625,0.9443817138671875,0.2960205078125
1758447627253016300,9.492016357421875,-0.0816192626953125,0.9435577392578125,0.29742431640625
1758447627262989300,9.5019892578125,-0.0836944580078125,0.944366455078125,0.2994384765625
1758447627272961000,9.5119609375,-0.0852203369140625,0.9449615478515625,0.303497314453125
1758447627282934300,9.521934326171875,-0.089080810546875,0.9452056884765625,0.310150146484375
1758447627292907300,9.5319072265625,-0.08819580078125,0.9440155029296875,0.3139495849609375
1758447627302879000,9.54187890625,-0.082122802734375,0.944915771484375,0.315673828125
1758447627312852200,9.551852294921876,-0.07562255859375,0.9434051513671875,0.3135833740234375
1758447627322825200,9.5618251953125,-0.071685791015625,0.9451751708984375,0.314849853515625
1758447627332798200,9.571798095703125,-0.0702056884765625,0.9465789794921875,0.3173675537109375
1758447627342770200,9.581770263671874,-0.0707244873046875,0.9454803466796875,0.3177032470703125
1758447627352743200,9.5917431640625,-0.074188232421875,0.9401702880859375,0.318115234375
1758447627362716200,9.601716064453125,-0.072174072265625,0.9385528564453125,0.3169097900390625
1758447627372688400,9.6116884765625,-0.067535400390625,0.9418182373046875,0.31414794921875
1758447627382661000,9.6216611328125,-0.061187744140625,0.9472808837890625,0.3081817626953125
1758447627392634000,9.631634033203126,-0.058135986328125,0.9547271728515625,0.30279541015625
1758447627402607000,9.641607177734375,-0.0605316162109375,0.957611083984375,0.300079345703125
1758447627412579300,9.651579345703125,-0.06854248046875,0.9552459716796875,0.299560546875
1758447627422552000,9.661552001953124,-0.0733184814453125,0.950927734375,0.2977142333984375
1758447627432525000,9.671525146484376,-0.070465087890625,0.9473876953125,0.29364013671875
1758447627442497300,9.681497314453125,-0.0677032470703125,0.9474334716796875,0.288848876953125
1758447627452470000,9.691469970703125,-0.0677490234375,0.948089599609375,0.2846832275390625
1758447627462443000,9.701443115234374,-0.0686187744140625,0.95318603515625,0.2868499755859375
1758447627472416300,9.711416259765626,-0.0733489990234375,0.9574737548828125,0.2917938232421875
1758447627482388200,9.72138818359375,-0.07763671875,0.954864501953125,0.2956390380859375
1758447627492361000,9.73136083984375,-0.0775299072265625,0.9483184814453125,0.30072021484375
1758447627502334200,9.741334228515624,-0.0731353759765625,0.9419708251953125,0.3031005859375
1758447627512306200,9.75130615234375,-0.0660400390625,0.93988037109375,0.3036651611328125
1758447627522279200,9.761279052734375,-0.0633392333984375,0.940460205078125,0.302581787109375
1758447627532252200,9.771252197265625,-0.0654754638671875,0.9438934326171875,0.3013916015625
1758447627542224100,9.78122412109375,-0.0691070556640625,0.94921875,0.29766845703125
1758447627552197000,9.791197021484376,-0.0714111328125,0.9550018310546875,0.2975921630859375
1758447627562170400,9.80117041015625,-0.068267822265625,0.957305908203125,0.2973480224609375
1758447627572143000,9.81114306640625,-0.0662689208984375,0.958770751953125,0.297821044921875
1758447627582115000,9.821114990234374,-0.0679168701171875,0.9588623046875,0.2978515625
1758447627592088300,9.83108837890625,-0.067535400390625,0.9527130126953125,0.301483154296875
1758447627602061300,9.841061279296875,-0.0720062255859375,0.9515533447265625,0.3074493408203125
1758447627612033000,9.851032958984375,-0.0750732421875,0.94537353515625,0.3143463134765625
1758447627622006300,9.86100634765625,-0.0766754150390625,0.9371490478515625,0.31976318359375
1758447627631979300,9.870979248046876,-0.072601318359375,0.932525634765625,0.3207244873046875
1758447627641952300,9.8809521484375,-0.07159423828125,0.9360504150390625,0.3219757080078125
1758447627651924200,9.89092431640625,-0.0730438232421875,0.9419403076171875,0.3200836181640625
1758447627661897200,9.900897216796874,-0.076416015625,0.9411468505859375,0.316680908203125
1758447627671870200,9.9108701171875,-0.07745361328125,0.93682861328125,0.312286376953125
1758447627681842200,9.92084228515625,-0.0826873779296875,0.9356842041015625,0.3086700439453125
1758447627691815200,9.930815185546875,-0.083587646484375,0.9407196044921875,0.307037353515625
1758447627701788200,9.9407880859375,-0.081756591796875,0.948028564453125,0.30126953125
1758447627711760400,9.950760498046876,-0.0740509033203125,0.951080322265625,0.2938232421875
1758447627721733000,9.960733154296875,-0.067657470703125,0.954345703125,0.287200927734375
1758447627731706000,9.9707060546875,-0.0661468505859375,0.959716796875,0.2890625
1758447627741679000,9.98067919921875,-0.0667266845703125,0.9622650146484375,0.2961883544921875
1758447627751651300,9.9906513671875,-0.063507080078125,0.95672607421875,0.302520751953125
1758447627761624000,10.0006240234375,-0.05072021484375,0.9509735107421875,0.3035125732421875
1758447627771597000,10.01059716796875,-0.0382080078125,0.948944091796875,0.2985382080078125
1758447627781569300,10.0205693359375,-0.0363922119140625,0.94976806640625,0.2950897216796875
1758447627791542300,10.030542236328126,-0.0403289794921875,0.952423095703125,0.2904815673828125
1758447627801515000,10.040514892578125,-0.0508270263671875,0.956298828125,0.289764404296875
1758447627811487200,10.0504873046875,-0.06256103515625,0.95550537109375,0.2949371337890625
1758447627821460200,10.060460205078124,-0.0710906982421875,0.9493255615234375,0.2999420166015625
1758447627831433200,10.07043310546875,-0.0742950439453125,0.9452972412109375,0.303497314453125
1758447627841406200,10.08040625,-0.0725250244140625,0.943389892578125,0.304168701171875
1758447627851378200,10.090378173828125,-0.07330322265625,0.943756103515625,0.3029632568359375
1758447627861351200,10.10035107421875,-0.071624755859375,0.945465087890625,0.30194091796875
1758447627871324200,10.11032421875,-0.0753326416015625,0.9509124755859375,0.302978515625
1758447627881296100,10.120296142578125,-0.077911376953125,0.94940185546875,0.3049774169921875
1758447627891269000,10.13026904296875,-0.0790557861328125,0.9452667236328125,0.30462646484375
1758447627901242400,10.140242431640624,-0.073150634765625,0.945526123046875,0.3013916015625
1758447627911214000,10.150214111328125,-0.070526123046875,0.94488525390625,0.295745849609375
1758447627921187000,10.16018701171875,-0.0698699951171875,0.9447174072265625,0.2940673828125
1758447627931160300,10.170160400390625,-0.07318115234375,0.9441070556640625,0.2912139892578125
1758447627941133300,10.18013330078125,-0.0789794921875,0.943389892578125,0.293365478515625
1758447627951105000,10.19010498046875,-0.084808349609375,0.944610595703125,0.299591064453125
1758447627961078300,10.200078369140625,-0.0901641845703125,0.9437408447265625,0.305877685546875
1758447627971051300,10.21005126953125,-0.08978271484375,0.9439239501953125,0.313323974609375
1758447627981023000,10.22002294921875,-0.077606201171875,0.9446868896484375,0.3165283203125
1758447627990996200,10.229996337890626,-0.06689453125,0.94879150390625,0.3178253173828125
1758447628000969200,10.23996923828125,-0.0599212646484375,0.9523773193359375,0.317230224609375
1758447628010941200,10.249941162109375,-0.05731201171875,0.9566802978515625,0.319732666015625
1758447628020914200,10.2599140625,-0.0582275390625,0.9589996337890625,0.3222808837890625
1758447628030887200,10.26988720703125,-0.0623016357421875,0.957000732421875,0.3245697021484375
1758447628040860200,10.279860107421875,-0.0640716552734375,0.94976806640625,0.3267974853515625
1758447628050833000,10.2898330078125,-0.059600830078125,0.9416046142578125,0.3237762451171875
1758447628060806100,10.29980615234375,-0.05206298828125,0.9371795654296875,0.319122314453125
1758447628070779000,10.30977880859375,-0.048980712890625,0.9378662109375,0.31170654296875
1758447628080750800,10.319750732421875,-0.05535888671875,0.9465789794921875,0.308563232421875
1758447628090724000,10.32972412109375,-0.0685882568359375,0.9517364501953125,0.3060150146484375
1758447628100697000,10.339697021484374,-0.0801239013671875,0.94921875,0.3049468994140625
1758447628110668800,10.349668701171876,-0.0891571044921875,0.94293212890625,0.3024444580078125
1758447628120642000,10.35964208984375,-0.0932159423828125,0.935821533203125,0.2999267578125
1758447628130615000,10.369614990234375,-0.09442138671875,0.937103271484375,0.3029327392578125
1758447628140588000,10.379588134765624,-0.09564208984375,0.9420623779296875,0.3052520751953125
1758447628150560000,10.38956005859375,-0.0956573486328125,0.9492645263671875,0.309173583984375
1758447628160533000,10.399532958984375,-0.0969696044921875,0.95074462890625,0.314361572265625
1758447628170506000,10.409506103515625,-0.0943603515625,0.948699951171875,0.31695556640625
1758447628180478000,10.41947802734375,-0.087188720703125,0.94384765625,0.3159332275390625
1758447628190451000,10.429450927734376,-0.0767059326171875,0.9415283203125,0.31103515625
1758447628200424000,10.439423828125,-0.065032958984375,0.945587158203125,0.305755615234375
1758447628210396000,10.44939599609375,-0.058837890625,0.9484405517578125,0.30401611328125
1758447628220369000,10.459368896484374,-0.0588531494140625,0.949066162109375,0.303466796875
1758447628230342000,10.469341796875,-0.0616607666015625,0.9478607177734375,0.306549072265625
1758447628240314000,10.479314208984375,-0.067657470703125,0.946624755859375,0.3079833984375
1758447628250286800,10.489286865234375,-0.0695953369140625,0.9426422119140625,0.3120880126953125
1758447628260259800,10.499259765625,-0.069976806640625,0.945465087890625,0.31622314453125
1758447628270232800,10.50923291015625,-0.068115234375,0.9437103271484375,0.313934326171875
1758447628280205000,10.519205078125,-0.06793212890625,0.9438323974609375,0.30523681640625
1758447628290177800,10.529177734375,-0.0721588134765625,0.9475250244140625,0.294342041015625
1758447628300150800,10.53915087890625,-0.0789031982421875,0.9480743408203125,0.283660888671875
1758447628310123000,10.549123046875,-0.0851287841796875,0.9497222900390625,0.28045654296875
1758447628320096000,10.559095947265625,-0.0904541015625,0.95281982421875,0.28485107421875
1758447628330068700,10.56906884765625,-0.0926361083984375,0.951202392578125,0.2932586669921875
1758447628340041000,10.579041015625,-0.080963134765625,0.9451904296875,0.3008270263671875
1758447628350014000,10.589013916015626,-0.06732177734375,0.94256591796875,0.304290771484375
1758447628359987000,10.598987060546875,-0.0570526123046875,0.9462127685546875,0.30548095703125
1758447628369959000,10.608958984375,-0.05645751953125,0.949127197265625,0.30792236328125
1758447628379932000,10.618931884765624,-0.059722900390625,0.9525146484375,0.3080596923828125
1758447628389905000,10.62890478515625,-0.0603790283203125,0.9539337158203125,0.309112548828125
1758447628399876900,10.638876953125,-0.0592041015625,0.95574951171875,0.3086090087890625
1758447628409849900,10.648849853515625,-0.058135986328125,0.95526123046875,0.30560302734375
1758447628419822800,10.65882275390625,-0.0589447021484375,0.9488677978515625,0.30194091796875
1758447628429796000,10.668796142578126,-0.06494140625,0.943023681640625,0.300537109375
1758447628439767800,10.678767822265625,-0.0751953125,0.942291259765625,0.3054351806640625
1758447628449740800,10.68874072265625,-0.0792694091796875,0.9444732666015625,0.311126708984375
1758447628459714000,10.698714111328124,-0.0793914794921875,0.9444427490234375,0.3131561279296875
1758447628469686000,10.70868603515625,-0.0781097412109375,0.9430389404296875,0.31304931640625
1758447628479658800,10.71865869140625,-0.0731964111328125,0.9413604736328125,0.3127899169921875
1758447628489632000,10.728632080078125,-0.0712738037109375,0.9429779052734375,0.3101959228515625
1758447628499604000,10.73860400390625,-0.0690765380859375,0.9452667236328125,0.3091888427734375
1758447628509577000,10.748576904296876,-0.06658935546875,0.94964599609375,0.307861328125
1758447628519550000,10.758550048828125,-0.0690765380859375,0.94970703125,0.3040771484375
1758447628529522000,10.76852197265625,-0.0724639892578125,0.9451446533203125,0.299591064453125
1758447628539495000,10.778494873046874,-0.0791778564453125,0.94268798828125,0.3009033203125
1758447628549468200,10.78846826171875,-0.084869384765625,0.9444427490234375,0.30487060546875
1758447628559441000,10.79844091796875,-0.089080810546875,0.9441070556640625,0.3111724853515625
1758447628569412900,10.808412841796875,-0.0865478515625,0.940948486328125,0.31329345703125
1758447628579386000,10.81838623046875,-0.0789947509765625,0.9388885498046875,0.313018798828125
1758447628589359000,10.828359130859376,-0.0773468017578125,0.9396514892578125,0.3123931884765625
1758447628599330800,10.838330810546875,-0.078369140625,0.9417266845703125,0.31280517578125
1758447628609304000,10.848303955078125,-0.0805206298828125,0.9426727294921875,0.3147430419921875
1758447628619277000,10.858277099609374,-0.08148193359375,0.9438018798828125,0.317596435546875
1758447628629248800,10.868248779296875,-0.0791473388671875,0.9423675537109375,0.320098876953125
1758447628639222000,10.878221923828125,-0.0765380859375,0.9429931640625,0.3218536376953125
1758447628649195000,10.888195068359375,-0.0706329345703125,0.943359375,0.324249267578125
1758447628659166700,10.898166748046876,-0.0645751953125,0.945953369140625,0.32177734375
1758447628669140000,10.908139892578125,-0.05633544921875,0.9468536376953125,0.317413330078125
1758447628679113000,10.918113037109375,-0.048126220703125,0.9485015869140625,0.310638427734375
1758447628689085000,10.9280849609375,-0.045867919921875,0.950042724609375,0.30267333984375
1758447628699058000,10.938057861328126,-0.0448760986328125,0.951324462890625,0.298126220703125
1758447628709031000,10.948031005859375,-0.04901123046875,0.9544219970703125,0.2977447509765625
1758447628719004000,10.95800390625,-0.0553741455078125,0.9564666748046875,0.301910400390625
1758447628728976100,10.96797607421875,-0.0633697509765625,0.9545135498046875,0.3061981201171875
1758447628738948900,10.977948974609374,-0.0650634765625,0.949798583984375,0.3104248046875
1758447628748921900,10.987921875,-0.0645599365234375,0.948089599609375,0.309844970703125
1758447628758894000,10.99789404296875,-0.06463623046875,0.9499969482421875,0.306610107421875
1758447628768867000,11.0078671875,-0.066497802734375,0.951080322265625,0.303558349609375
1758447628778839800,11.01783984375,-0.0714874267578125,0.9500885009765625,0.3042449951171875
1758447628788812000,11.02781201171875,-0.0753631591796875,0.949798583984375,0.307403564453125
1758447628798785000,11.037784912109375,-0.0751495361328125,0.94671630859375,0.3108062744140625
1758447628808758000,11.047758056640625,-0.0696868896484375,0.9421844482421875,0.31231689453125
1758447628818730000,11.05772998046875,-0.0606842041015625,0.9405059814453125,0.307830810546875
1758447628828703000,11.067702880859375,-0.058319091796875,0.9436492919921875,0.304046630859375
1758447628838676000,11.077676025390625,-0.0618133544921875,0.9443359375,0.30108642578125
1758447628848648000,11.08764794921875,-0.0679168701171875,0.946807861328125,0.30169677734375
1758447628858621000,11.097620849609376,-0.0760345458984375,0.94964599609375,0.304779052734375
1758447628868594000,11.107593994140625,-0.0802154541015625,0.9480133056640625,0.3070526123046875
1758447628878567000,11.11756689453125,-0.079620361328125,0.9439239501953125,0.3087158203125
1758447628888539000,11.127538818359374,-0.0778656005859375,0.9447021484375,0.3094024658203125
1758447628898512000,11.137511962890626,-0.0761566162109375,0.9494781494140625,0.308013916015625
1758447628908484900,11.14748486328125,-0.080291748046875,0.9541778564453125,0.307952880859375
1758447628918457000,11.15745703125,-0.0867767333984375,0.957275390625,0.30902099609375
1758447628928429800,11.167429931640624,-0.090576171875,0.9569244384765625,0.31341552734375
1758447628938402800,11.17740283203125,-0.095123291015625,0.9549407958984375,0.32257080078125
1758447628948375000,11.187375,-0.0966796875,0.9505462646484375,0.3321990966796875
1758447628958348000,11.19734814453125,-0.0944366455078125,0.944488525390625,0.339935302734375
1758447628968320800,11.20732080078125,-0.0838470458984375,0.9415283203125,0.342926025390625
1758447628978293000,11.21729296875,-0.07122802734375,0.9449462890625,0.340087890625
1758447628988266000,11.227265869140625,-0.061767578125,0.9506988525390625,0.334503173828125
1758447628998239000,11.237239013671875,-0.05645751953125,0.970703125,0.3381195068359375
1758447629008211000,11.2472109375,-0.0495452880859375,0.97320556640625,0.3271636962890625
1758447629018184000,11.257183837890626,-0.03314208984375,0.921905517578125,0.28656005859375
1758447629028157000,11.267156982421875,-0.0322265625,0.8867034912109375,0.272369384765625
1758447629038129000,11.27712890625,-0.0438079833984375,0.87762451171875,0.2724151611328125
1758447629048102000,11.287101806640624,-0.065887451171875,0.9169921875,0.2953338623046875
1758447629058074000,11.29707421875,-0.076934814453125,0.962310791015625,0.32366943359375
1758447629068046300,11.30704638671875,-0.071746826171875,0.9760589599609375,0.34075927734375
1758447629078019300,11.317019287109375,-0.0572509765625,0.9570465087890625,0.3469696044921875
1758447629087992000,11.326991943359374,-0.0635223388671875,0.93511962890625,0.360626220703125
1758447629097965300,11.33696533203125,-0.086456298828125,0.9606781005859375,0.3792266845703125
1758447629107937300,11.346937255859375,-0.08819580078125,0.9938812255859375,0.371673583984375
1758447629117910300,11.35691015625,-0.0728302001953125,0.9899139404296875,0.3401641845703125
1758447629127883300,11.36688330078125,-0.0610198974609375,0.9707183837890625,0.2988739013671875
1758447629137855200,11.376855224609375,-0.0637969970703125,0.9514617919921875,0.2681732177734375
1758447629147828200,11.386828125,-0.0803070068359375,0.9272918701171875,0.2474365234375
1758447629157801500,11.396801513671875,-0.1038818359375,0.904296875,0.2355804443359375
1758447629167773200,11.406773193359374,-0.1212615966796875,0.8951568603515625,0.232330322265625
1758447629177746200,11.41674609375,-0.1378326416015625,0.90838623046875,0.24639892578125
1758447629187719400,11.426719482421875,-0.148193359375,0.9289093017578125,0.2687835693359375
1758447629197691100,11.436691162109375,-0.1582489013671875,0.962554931640625,0.2932586669921875
1758447629207664000,11.4466640625,-0.1623382568359375,0.9848480224609375,0.3173675537109375
1758447629217637400,11.456637451171876,-0.15203857421875,0.9846343994140625,0.33355712890625
1758447629227609300,11.466609375,-0.133270263671875,0.9788360595703125,0.34710693359375
1758447629237582000,11.47658203125,-0.10504150390625,0.965484619140625,0.360137939453125
1758447629247555300,11.486555419921874,-0.0799713134765625,0.9490814208984375,0.3690338134765625
1758447629257527300,11.49652734375,-0.0643768310546875,0.9354705810546875,0.3748779296875
1758447629267500300,11.506500244140625,-0.054290771484375,0.9250946044921875,0.3782501220703125
1758447629277473300,11.516473388671875,-0.0467681884765625,0.921356201171875,0.3806610107421875
1758447629287445200,11.5264453125,-0.0409088134765625,0.924072265625,0.3772125244140625
1758447629297418200,11.536418212890625,-0.0353240966796875,0.9302520751953125,0.3688507080078125
1758447629307391500,11.5463916015625,-0.0332794189453125,0.9400482177734375,0.36053466796875
1758447629317363200,11.55636328125,-0.0402679443359375,0.9528961181640625,0.36083984375
1758447629327336200,11.566336181640626,-0.050933837890625,0.958465576171875,0.3629608154296875
1758447629337309400,11.576309326171875,-0.05877685546875,0.9537811279296875,0.3707122802734375
1758447629347281200,11.58628125,-0.0648651123046875,0.9553375244140625,0.3860626220703125
1758447629357254100,11.596254150390624,-0.0698089599609375,0.9488677978515625,0.3938140869140625
1758447629367227400,11.606227294921876,-0.07415771484375,0.9263153076171875,0.3954010009765625
1758447629377200400,11.616200439453126,-0.08013916015625,0.90478515625,0.396026611328125
1758447629387172000,11.626172119140625,-0.084259033203125,0.89422607421875,0.3994140625
1758447629397145300,11.636145263671875,-0.083587646484375,0.88885498046875,0.3985748291015625
1758447629407118300,11.646118408203124,-0.082855224609375,0.8848876953125,0.4031524658203125
1758447629417090300,11.65609033203125,-0.073455810546875,0.8812255859375,0.40899658203125
1758447629427063300,11.666063232421875,-0.061248779296875,0.8888397216796875,0.4147796630859375
1758447629437036300,11.676036376953125,-0.0457611083984375,0.90264892578125,0.41790771484375
1758447629447008300,11.68600830078125,-0.0313568115234375,0.9097747802734375,0.4108428955078125
1758447629456981500,11.6959814453125,-0.0155181884765625,0.909820556640625,0.3988494873046875
1758447629466954200,11.705954345703125,0.000732421875,0.9071044921875,0.3785247802734375
1758447629476926200,11.71592626953125,-0.000579833984375,0.900299072265625,0.3515777587890625
1758447629486899500,11.7258994140625,-0.0092926025390625,0.8922119140625,0.3222503662109375
1758447629496872200,11.7358720703125,-0.020751953125,0.8892974853515625,0.307403564453125
1758447629506844200,11.74584423828125,-0.031158447265625,0.892333984375,0.2911224365234375
1758447629516817400,11.7558173828125,-0.03704833984375,0.90179443359375,0.282379150390625
1758447629526790400,11.765790283203126,-0.03436279296875,0.91119384765625,0.2857208251953125
1758447629536762000,11.77576220703125,-0.0124359130859375,0.915374755859375,0.2784576416015625
1758447629546735400,11.7857353515625,0.0083160400390625,0.9160003662109375,0.2606658935546875
1758447629556708400,11.795708251953124,0.02996826171875,0.9077911376953125,0.2415008544921875
1758447629566680300,11.805680419921876,0.055389404296875,0.91339111328125,0.2137451171875
1758447629576653300,11.8156533203125,0.0825347900390625,0.9281005859375,0.16973876953125
1758447629586626300,11.825626220703125,0.15899658203125,0.946533203125,0.1273956298828125
1758447629596598300,11.835598388671874,0.2791595458984375,0.98541259765625,0.14599609375
1758447629606571300,11.8455712890625,0.3103179931640625,0.9958648681640625,0.1853485107421875
1758447629616544300,11.855544189453125,0.2857513427734375,0.9886322021484375,0.2309722900390625
1758447629626516200,11.86551611328125,0.2577362060546875,0.9585113525390625,0.2521820068359375
1758447629636489500,11.875489501953124,0.1655120849609375,0.932281494140625,0.2713165283203125
1758447629646462200,11.885462158203126,0.0577239990234375,0.8976287841796875,0.2817230224609375
1758447629656434200,11.89543408203125,0.034515380859375,0.8540496826171875,0.264068603515625
1758447629666407400,11.905407470703125,0.05364990234375,0.8330078125,0.24957275390625
1758447629676380400,11.91538037109375,0.12799072265625,0.830078125,0.2624053955078125
1758447629686352100,11.92535205078125,0.2596282958984375,0.8361968994140625,0.3073272705078125
1758447629696325400,11.935325439453125,0.3267974853515625,0.84857177734375,0.337677001953125
1758447629706298400,11.94529833984375,0.3078155517578125,0.8708648681640625,0.3673095703125
1758447629716270300,11.955270263671874,0.2458038330078125,0.9079132080078125,0.399871826171875
1758447629726243300,11.965243408203126,0.118560791015625,0.945953369140625,0.3892364501953125
1758447629736216300,11.97521630859375,0.067718505859375,0.983154296875,0.3443756103515625
1758447629746188300,11.985188232421875,0.119171142578125,1.0275115966796875,0.31121826171875
1758447629756161300,11.995161376953124,0.22491455078125,1.0239410400390625,0.219207763671875
1758447629766134300,12.00513427734375,0.305023193359375,1.007354736328125,0.1474151611328125
1758447629776106200,12.015106201171875,0.359375,0.9868621826171875,0.134246826171875
1758447629786079500,12.02507958984375,0.3756561279296875,0.9680328369140625,0.1680755615234375
1758447629796052200,12.03505224609375,0.38555908203125,0.9529571533203125,0.2263641357421875
1758447629806025200,12.045025146484376,0.505645751953125,0.9208984375,0.2566986083984375
1758447629815997400,12.05499755859375,0.6207427978515625,0.8807830810546875,0.2686614990234375
1758447629825970400,12.064970458984375,0.5739593505859375,0.8709869384765625,0.277252197265625
1758447629835943200,12.074943115234374,0.30621337890625,0.86614990234375,0.24017333984375
1758447629845915400,12.084915283203125,0.0923004150390625,0.8393402099609375,0.1690673828125
1758447629855888400,12.094888427734375,0.1204681396484375,0.7870025634765625,0.082489013671875
1758447629865861400,12.104861328125,0.238067626953125,0.75885009765625,0.03399658203125
1758447629875833300,12.114833251953126,0.344024658203125,0.774749755859375,0.0447540283203125
1758447629885806300,12.124806396484376,0.4183197021484375,0.8108367919921875,0.0584869384765625
1758447629895779300,12.134779296875,0.5134429931640625,0.848663330078125,0.056671142578125
1758447629905751300,12.144751220703125,0.58184814453125,0.893402099609375,0.059051513671875
1758447629915724300,12.154724365234374,0.573394775390625,0.9205474853515625,0.0705413818359375
1758447629925697300,12.164697265625,0.56201171875,0.903045654296875,0.053863525390625
1758447629935669500,12.17466943359375,0.5804290771484375,0.8596038818359375,0.052001953125
1758447629945642200,12.184642333984375,0.540008544921875,0.807525634765625,0.0325927734375
1758447629955615200,12.194615234375,0.47601318359375,0.763336181640625,-0.0013275146484375
1758447629965587500,12.20458740234375,0.4196624755859375,0.75445556640625,-0.0381011962890625
1758447629975560200,12.214560302734375,0.45782470703125,0.772979736328125,-0.044189453125
1758447629985533200,12.224533203125,0.5194091796875,0.77630615234375,-0.012359619140625
1758447629995505400,12.23450537109375,0.585357666015625,0.7627105712890625,0.017913818359375
1758447630005478400,12.244478515625,0.600372314453125,0.7815093994140625,0.0470733642578125
1758447630015451100,12.254451171875,0.5372467041015625,0.788482666015625,0.0662384033203125
1758447630025423400,12.26442333984375,0.50872802734375,0.7502593994140625,0.043701171875
1758447630035396400,12.274396240234376,0.578704833984375,0.6968994140625,0.0431060791015625
1758447630045369300,12.284369384765625,0.63916015625,0.64862060546875,0.0537261962890625
1758447630055341600,12.294341552734375,0.63287353515625,0.6277313232421875,0.0465545654296875
1758447630065314600,12.304314453125,0.5604400634765625,0.6658477783203125,0.010528564453125
1758447630075287600,12.31428759765625,0.558135986328125,0.7198028564453125,-0.0141448974609375
1758447630085259500,12.324259521484375,0.6204986572265625,0.737762451171875,-0.0015869140625
1758447630095232500,12.334232421875,0.6815338134765625,0.739532470703125,0.034942626953125
1758447630105205500,12.34420556640625,0.6946563720703125,0.745819091796875,0.0103607177734375
1758447630115177500,12.354177490234376,0.65643310546875,0.771759033203125,-0.048614501953125
1758447630125150500,12.364150390625,0.64642333984375,0.771240234375,-0.0673675537109375
1758447630135123500,12.37412353515625,0.70098876953125,0.7350311279296875,-0.048187255859375
1758447630145095700,12.384095703125,0.7225799560546875,0.6847076416015625,-0.0502166748046875
1758447630155068400,12.394068359375,0.7352142333984375,0.6920166015625,-0.0579986572265625
1758447630165041400,12.40404150390625,0.7303009033203125,0.704254150390625,-0.09893798828125
1758447630175013600,12.414013671875,0.69525146484375,0.7015380859375,-0.14837646484375
1758447630184986400,12.423986328125,0.7282562255859375,0.663421630859375,-0.16717529296875
1758447630194959400,12.43395947265625,0.8148345947265625,0.6116180419921875,-0.172119140625
1758447630204931600,12.443931640625,0.847900390625,0.60504150390625,-0.2144317626953125
1758447630214904600,12.453904541015625,0.844940185546875,0.64349365234375,-0.247283935546875
1758447630224877300,12.463877197265624,0.8899383544921875,0.6501312255859375,-0.2492828369140625
1758447630234849500,12.473849609375,0.9094390869140625,0.5762786865234375,-0.26776123046875
1758447630244822500,12.483822509765625,1.020050048828125,0.500579833984375,-0.3827362060546875
1758447630254795500,12.49379541015625,1.026031494140625,0.4840240478515625,-0.4856414794921875
1758447630264767500,12.503767578125,0.9582061767578125,0.4873046875,-0.519500732421875
1758447630274740500,12.513740478515626,0.9526214599609375,0.4618072509765625,-0.5567779541015625
1758447630284713500,12.52371337890625,0.965850830078125,0.4530487060546875,-0.5572357177734375
1758447630294685400,12.533685546875,0.982177734375,0.44012451171875,-0.55731201171875
1758447630304658400,12.543658447265624,0.9620361328125,0.44671630859375,-0.5270233154296875
1758447630314631400,12.55363134765625,0.9377288818359375,0.458953857421875,-0.50042724609375
1758447630324603600,12.563603759765625,0.958984375,0.465850830078125,-0.5063018798828125
1758447630334576400,12.573576416015625,0.9618072509765625,0.464599609375,-0.51898193359375
1758447630344548400,12.58354833984375,0.9353179931640625,0.4753875732421875,-0.51776123046875
1758447630354521600,12.593521484375,0.9005279541015625,0.471588134765625,-0.5019683837890625
1758447630364494600,12.60349462890625,0.8695831298828125,0.455078125,-0.4630279541015625
1758447630374467300,12.61346728515625,0.842071533203125,0.4334564208984375,-0.4081268310546875
1758447630384439600,12.623439453125,0.8162994384765625,0.4085845947265625,-0.3544158935546875
1758447630394412500,12.63341259765625,0.8005828857421875,0.389068603515625,-0.3222503662109375
1758447630404384300,12.64338427734375,0.8006591796875,0.375762939453125,-0.306610107421875
1758447630414357500,12.653357421875,0.7997894287109375,0.3708648681640625,-0.2919464111328125
1758447630424330500,12.66333056640625,0.79339599609375,0.3748626708984375,-0.29180908203125
1758447630434302500,12.673302490234375,0.7886962890625,0.388946533203125,-0.313568115234375
1758447630444275500,12.683275390625,0.7862548828125,0.408721923828125,-0.339080810546875
1758447630454248400,12.69324853515625,0.7918548583984375,0.4189453125,-0.367950439453125
1758447630464220400,12.703220458984376,0.8078155517578125,0.4249725341796875,-0.395416259765625
1758447630474193700,12.713193603515625,0.8249359130859375,0.422332763671875,-0.40966796875
1758447630484166400,12.72316650390625,0.847412109375,0.4087982177734375,-0.41192626953125
1758447630494138400,12.733138427734374,0.8660430908203125,0.388824462890625,-0.3938446044921875
1758447630504111600,12.743111572265626,0.8752288818359375,0.3683624267578125,-0.357940673828125
1758447630514084600,12.753084716796875,0.8747406005859375,0.351287841796875,-0.32666015625
1758447630524056300,12.763056396484375,0.87054443359375,0.3459014892578125,-0.303009033203125
1758447630534029600,12.773029541015624,0.864044189453125,0.362579345703125,-0.287078857421875
1758447630544002600,12.78300244140625,0.860748291015625,0.3905487060546875,-0.2840576171875
1758447630553974300,12.792974365234375,0.8672637939453125,0.4248046875,-0.2917022705078125
1758447630563947500,12.802947509765625,0.87982177734375,0.4481658935546875,-0.305877685546875
1758447630573920500,12.81292041015625,0.887939453125,0.4566650390625,-0.31787109375
1758447630583892500,12.822892578125,0.877410888671875,0.4573211669921875,-0.317230224609375
1758447630593865500,12.832865478515625,0.8564910888671875,0.4499359130859375,-0.3189697265625
1758447630603838500,12.84283837890625,0.8384857177734375,0.4425048828125,-0.311767578125
1758447630613810400,12.852810546875,0.827239990234375,0.4435882568359375,-0.2934417724609375
1758447630623783700,12.86278369140625,0.8223876953125,0.4467926025390625,-0.280242919921875
1758447630633756400,12.87275634765625,0.826202392578125,0.45050048828125,-0.2789154052734375
