time,seconds_elapsed,z,y,x
1758447617775166500,0.01416650390625,-0.3897307217121124,-0.5840362906455994,-0.20493769645690918
1758447617785138400,0.024138427734375,-0.42999985814094543,-0.5769909024238586,-0.14310282468795776
1758447617795111400,0.034111328125,-0.444865345954895,-0.5039057731628418,-0.040948498994112015
1758447617805084400,0.04408447265625,-0.4220242202281952,-0.37040868401527405,0.07328832894563675
1758447617815057400,0.054057373046875,-0.34677714109420776,-0.21521110832691193,0.16914002597332
1758447617825030400,0.064030517578125,-0.26402604579925537,-0.07390005886554718,0.2343270182609558
1758447617835002400,0.07400244140625,-0.1948333978652954,0.01152882445603609,0.2669163942337036
1758447617844975400,0.083975341796875,-0.13771338760852814,0.0478932224214077,0.26164519786834717
1758447617854948600,0.093948486328125,-0.09198451787233353,0.041018806397914886,0.22112838923931122
1758447617864921300,0.10392138671875,-0.05874080955982208,-0.0000774979853304103,0.14483122527599335
1758447617874893300,0.113893310546875,-0.024702416732907295,-0.06729594618082047,0.044613275676965714
1758447617884866600,0.123866455078125,0.007229417096823454,-0.12833747267723083,-0.05650109425187111
1758447617894839600,0.133839599609375,0.04260152205824852,-0.18026351928710938,-0.1290850192308426
1758447617904812300,0.143812255859375,0.06447353214025497,-0.22762809693813324,-0.14513109624385834
1758447617914785300,0.153785400390625,0.08639294654130936,-0.2517411708831787,-0.11325651407241821
1758447617924757500,0.163757568359375,0.11466266959905624,-0.23924987018108368,-0.05879540741443634
1758447617934730500,0.17373046875,0.13959278166294098,-0.22599558532238007,-0.01954813487827778
1758447617944703200,0.183703125,0.14794792234897614,-0.23505298793315887,-0.019232284277677536
1758447617954676500,0.193676513671875,0.15094290673732758,-0.24204406142234802,-0.03581791743636131
1758447617964649500,0.2036494140625,0.1450200378894806,-0.23518694937229156,-0.04698082432150841
1758447617974621400,0.213621337890625,0.13515035808086395,-0.22300538420677185,-0.05511891096830368
1758447617984594400,0.223594482421875,0.13405580818653107,-0.1776360422372818,-0.07123875617980957
1758447617994567400,0.2335673828125,0.14484266936779022,-0.12675155699253082,-0.09876732528209686
1758447618004540400,0.24354052734375,0.1510923057794571,-0.07733047753572464,-0.142412006855011
1758447618014512600,0.2535126953125,0.1579611450433731,-0.024453410878777504,-0.17438697814941406
1758447618024485400,0.2634853515625,0.16442222893238068,0.03296034783124924,-0.17405036091804504
1758447618034458400,0.273458251953125,0.163314089179039,0.07048135995864868,-0.15396985411643982
1758447618044431400,0.283431396484375,0.16100992262363434,0.07996007800102234,-0.12461782991886139
1758447618054404600,0.293404541015625,0.16714239120483398,0.06564053148031235,-0.09802376478910446
1758447618064376300,0.303376220703125,0.17748263478279114,0.029738454148173332,-0.06441840529441833
1758447618074349300,0.313349365234375,0.19162775576114655,-0.019335348159074783,-0.021075190976262093
1758447618084322600,0.323322509765625,0.20311397314071655,-0.07019799947738647,0.02569684199988842
1758447618094295600,0.333295654296875,0.20702588558197021,-0.12228889763355255,0.06266071647405624
1758447618104267300,0.343267333984375,0.2024013102054596,-0.16164003312587738,0.08179659396409988
1758447618114240500,0.353240478515625,0.18182812631130219,-0.1782483011484146,0.07510620355606079
1758447618124213500,0.363213623046875,0.146223783493042,-0.18656907975673676,0.04748549312353134
1758447618134186500,0.3731865234375,0.10635466873645782,-0.19361047446727753,0.01830390654504299
1758447618144159500,0.383159423828125,0.07472217082977295,-0.169234037399292,-0.010103766806423664
1758447618154131500,0.39313134765625,0.06264154613018036,-0.11416598409414291,-0.03328977897763252
1758447618164104400,0.4031044921875,0.06792445480823517,-0.06864909827709198,-0.04986529424786568
1758447618174077400,0.413077392578125,0.0764942392706871,-0.04021772742271423,-0.05384405702352524
1758447618184050400,0.423050537109375,0.07168696820735931,-0.033851440995931625,-0.04788630083203316
1758447618194023400,0.4330234375,0.05654876306653023,-0.033841319382190704,-0.03821316733956337
1758447618203995400,0.442995361328125,0.037823013961315155,-0.04602528363466263,-0.020203804597258568
1758447618213968600,0.45296875,0.02678447589278221,-0.05510985851287842,0.013538445346057415
1758447618223941600,0.462941650390625,0.017227988690137863,-0.0592297688126564,0.04971642419695854
1758447618233914400,0.472914306640625,-0.0037465349305421114,-0.05648697912693024,0.06473638862371445
1758447618243886600,0.482886474609375,-0.020184097811579704,-0.04641250520944595,0.04817711561918259
1758447618253859600,0.492859619140625,-0.030345123261213303,-0.036317527294158936,0.0046762446872889996
1758447618263832600,0.50283251953125,-0.03259815648198128,-0.007440072949975729,-0.03380456939339638
1758447618273805300,0.512805419921875,-0.022399049252271652,0.0302596352994442,-0.05002908036112785
1758447618283777500,0.522777587890625,-0.005862948950380087,0.0613885261118412,-0.040520794689655304
1758447618293750500,0.53275048828125,0.015631956979632378,0.07724311947822571,-0.014197577722370625
1758447618303723500,0.5427236328125,0.03772527351975441,0.0866273045539856,0.012953882105648518
1758447618313696500,0.552696533203125,0.04691237956285477,0.0767911821603775,0.017915084958076477
1758447618323669500,0.56266943359375,0.03212065249681473,0.05296175181865692,0.008332764729857445
1758447618333641500,0.572641357421875,0.0008295746520161629,0.02443050779402256,-0.014741129241883755
1758447618343614500,0.582614501953125,-0.03512389957904816,0.003859453136101365,-0.04380900040268898
1758447618353587500,0.59258740234375,-0.06000394746661186,-0.0033875408116728067,-0.07272693514823914
1758447618363560400,0.602560546875,-0.0696784108877182,-0.007637146860361099,-0.09929276257753372
1758447618373533400,0.612533447265625,-0.07807961851358414,-0.02737037092447281,-0.12250993400812149
1758447618383505700,0.622505615234375,-0.08720094710588455,-0.044679854065179825,-0.136285662651062
1758447618393478400,0.632478515625,-0.08972588926553726,-0.05149781331419945,-0.14430445432662964
1758447618403451400,0.642451416015625,-0.09010805189609528,-0.04380926489830017,-0.1425986886024475
1758447618413424400,0.65242431640625,-0.08499851077795029,-0.03882622346282005,-0.12783679366111755
1758447618423396600,0.662396728515625,-0.06853006035089493,-0.046554453670978546,-0.10100384801626205
1758447618433369300,0.672369384765625,-0.048958223313093185,-0.04342284053564072,-0.06730180978775024
1758447618443342300,0.68234228515625,-0.033850640058517456,-0.03742220625281334,-0.03760223463177681
1758447618453315600,0.692315673828125,-0.018203238025307655,-0.040407344698905945,-0.02971714921295643
1758447618463288600,0.70228857421875,-0.001865544356405735,-0.03900013118982315,-0.041060350835323334
1758447618473260300,0.71226025390625,0.009343434125185013,-0.034029338508844376,-0.06210651248693466
1758447618483233500,0.722233642578125,0.010904845781624317,-0.041186586022377014,-0.08713996410369873
1758447618493206500,0.73220654296875,0.005660815164446831,-0.027052922174334526,-0.1032872423529625
1758447618503179500,0.742179443359375,0.006078398786485195,0.0033595776185393333,-0.09558244794607162
1758447618513151500,0.7521513671875,0.002743322169408202,0.03581498935818672,-0.06961476057767868
1758447618523124500,0.76212451171875,-0.0012578109744936228,0.051600076258182526,-0.017672203481197357
1758447618533097500,0.772097412109375,0.007838748395442963,0.0530184768140316,0.03979268670082092
1758447618543070500,0.782070556640625,0.02334686741232872,0.03858387842774391,0.08192948997020721
1758447618553043500,0.79204345703125,0.04015381261706352,0.0001661812566453591,0.09983551502227783
1758447618563015400,0.802015380859375,0.05088555067777634,-0.03599661588668823,0.10620233416557312
1758447618572988400,0.811988525390625,0.05058594420552254,-0.045691054314374924,0.10197802633047104
1758447618582961700,0.821961669921875,0.04830068722367287,-0.03497502952814102,0.09289984405040741
1758447618592934400,0.831934326171875,0.03665175288915634,-0.015305719338357449,0.08572182804346085
1758447618602906400,0.84190625,0.016940901055932045,-0.0025939189363271,0.077818363904953
1758447618612879600,0.851879638671875,-0.008052334189414978,-0.0002849582233466208,0.06426980346441269
1758447618622852600,0.8618525390625,-0.034452248364686966,0.0012684636749327183,0.05155187472701073
1758447618632825300,0.871825439453125,-0.057672884315252304,0.002531068166717887,0.04458078369498253
1758447618642797600,0.881797607421875,-0.07289045304059982,-0.006503173150122166,0.04025208204984665
1758447618652770600,0.8917705078125,-0.08416520804166794,-0.01242311391979456,0.04614805430173874
1758447618662743600,0.90174365234375,-0.09153604507446289,-0.03258910030126572,0.05143389478325844
1758447618672716300,0.91171630859375,-0.09610336273908615,-0.056103214621543884,0.05396762862801552
1758447618682689500,0.921689453125,-0.09412836283445358,-0.08471808582544327,0.04820268228650093
1758447618692661500,0.93166162109375,-0.09682668000459671,-0.11562620103359222,0.028561336919665337
1758447618702634500,0.941634521484375,-0.10358205437660217,-0.12438799440860748,0.00023675501870457083
1758447618712607500,0.951607421875,-0.11038509756326675,-0.09017250686883926,-0.024264059960842133
1758447618722580500,0.96158056640625,-0.11083836853504181,-0.035840023308992386,-0.03711168095469475
1758447618732552400,0.971552490234375,-0.11952213943004608,0.007463508751243353,-0.045635394752025604
1758447618742525700,0.981525634765625,-0.12787753343582153,0.03171425312757492,-0.05403074622154236
1758447618752498400,0.99149853515625,-0.12317413091659546,0.03616812452673912,-0.057137589901685715
1758447618762471400,1.001471435546875,-0.11458596587181091,0.030290527269244194,-0.05371728911995888
1758447618772444400,1.0114443359375,-0.10205686092376709,0.005946306046098471,-0.04271204397082329
1758447618782416600,1.021416748046875,-0.09518910199403763,-0.024884045124053955,-0.022904250770807266
1758447618792389400,1.031389404296875,-0.08959166705608368,-0.05185973644256592,-0.014443653635680676
1758447618802362400,1.0413623046875,-0.08421634137630463,-0.06001140549778938,-0.01852894388139248
1758447618812335600,1.051335693359375,-0.08555831015110016,-0.052744172513484955,-0.03111877106130123
1758447618822307600,1.0613076171875,-0.09348760545253754,-0.04122200608253479,-0.05473941192030907
1758447618832280300,1.0712802734375,-0.10152502357959747,-0.010095510631799698,-0.07083103060722351
1758447618842253600,1.081253662109375,-0.11259844899177551,0.016867930069565773,-0.07247952371835709
1758447618852226600,1.0912265625,-0.12344949692487717,0.027691015973687172,-0.058757323771715164
1758447618862199600,1.101199462890625,-0.12524154782295227,0.04033650457859039,-0.029811957851052284
1758447618872171500,1.111171630859375,-0.11664166301488876,0.029355226084589958,0.001353684812784195
1758447618882144500,1.12114453125,-0.10330774635076523,0.00264771468937397,0.024947959929704666
1758447618892117500,1.131117431640625,-0.0884142816066742,-0.009002016857266426,0.035649072378873825
1758447618902090500,1.141090576171875,-0.07406171411275864,-0.02166588045656681,0.024513598531484604
1758447618912062500,1.1510625,-0.06327271461486816,-0.028129905462265015,0.00236302288249135
1758447618922035500,1.161035400390625,-0.057314686477184296,-0.021997977048158646,-0.020839767530560493
1758447618932008400,1.171008544921875,-0.060734186321496964,-0.016408268362283707,-0.03286527097225189
1758447618941981400,1.1809814453125,-0.06508366018533707,-0.009457417763769627,-0.02719460241496563
1758447618951954400,1.190954345703125,-0.06592682003974915,-0.0014447649009525776,-0.010806042701005936
1758447618961926400,1.200926513671875,-0.060510214418172836,0.0024056334514170885,0.011600730009377003
1758447618971899400,1.2108994140625,-0.050935883074998856,-0.000360059377271682,0.03375023975968361
1758447618981872600,1.22087255859375,-0.037447240203619,-0.013947241008281708,0.04032345488667488
1758447618991845400,1.230845458984375,-0.02636795863509178,-0.04211416468024254,0.03075524978339672
1758447619001817300,1.2408173828125,-0.022403042763471603,-0.0476391576230526,0.023249661549925804
1758447619011790600,1.25079052734375,-0.02027837373316288,-0.038416363298892975,0.019829630851745605
1758447619021763600,1.260763671875,-0.01732839085161686,-0.015361645258963108,0.024458205327391624
1758447619031736300,1.270736328125,-0.013334713876247406,-0.0020005665719509125,0.02371784672141075
1758447619041709000,1.280708984375,-0.0026610305067151785,-0.014948323369026184,0.02472851611673832
1758447619051680800,1.2906806640625,0.014871357940137386,-0.031133418902754784,0.02460707537829876
1758447619061653800,1.30065380859375,0.03274010494351387,-0.06419363617897034,0.026147181168198586
1758447619071627000,1.310626953125,0.043656934052705765,-0.09854787588119507,0.03358219563961029
1758447619081600000,1.32060009765625,0.05810431391000748,-0.12261193245649338,0.03658996894955635
1758447619091571700,1.33057177734375,0.05745796486735344,-0.12082921713590622,0.05672586336731911
1758447619101545000,1.340544921875,0.05035904422402382,-0.09796677529811859,0.0760958343744278
1758447619111518000,1.35051806640625,0.04101907089352608,-0.07274451106786728,0.08518839627504349
1758447619121491000,1.360490966796875,0.02768861874938011,-0.0409969687461853,0.08307570964097977
1758447619131463000,1.370462890625,0.02834056131541729,-0.008593754842877388,0.07172585278749466
1758447619141436000,1.380435791015625,0.03792314603924751,0.020915135741233826,0.06222103163599968
1758447619151409000,1.390408935546875,0.044980525970458984,0.02743482030928135,0.053054165095090866
1758447619161382000,1.4003818359375,0.048170190304517746,0.007428355049341917,0.03977004811167717
1758447619171355000,1.41035498046875,0.05576126649975777,-0.010655573569238186,0.023552730679512024
1758447619181326800,1.420326904296875,0.06545490771532059,-0.013316604308784008,0.006583866663277149
1758447619191299800,1.4302998046875,0.06459283828735352,-0.019701799377799034,-0.000699079770129174
1758447619201273000,1.440273193359375,0.06179039552807808,-0.015158180147409439,-0.003988882526755333
1758447619211245800,1.450245849609375,0.056110408157110214,-0.006712497677654028,-0.004614459350705147
1758447619221217800,1.4602177734375,0.039750076830387115,0.007711981888860464,-0.004246144089847803
1758447619231191000,1.47019091796875,0.026815103366971016,0.023269370198249817,-0.009874202311038971
1758447619241163800,1.480163818359375,0.026399916037917137,0.028642563149333,-0.030133401975035667
1758447619251136800,1.49013671875,0.030047114938497543,0.015752065926790237,-0.051427505910396576
1758447619261109800,1.50010986328125,0.032711874693632126,-0.016823720186948776,-0.06267083436250687
1758447619271082000,1.51008203125,0.03327912837266922,-0.043894488364458084,-0.04590011388063431
1758447619281054700,1.5200546875,0.03220720589160919,-0.05084586888551712,-0.010625213384628296
1758447619291027700,1.53002783203125,0.0239572636783123,-0.05065571889281273,0.029390912503004074
1758447619301001000,1.5400009765625,0.014610634185373783,-0.04797125235199928,0.05848594754934311
1758447619310973000,1.549972900390625,0.012090484611690044,-0.042871300131082535,0.07122278213500977
1758447619320945700,1.559945556640625,0.011931227520108223,-0.037881601601839066,0.06015601381659508
1758447619330919000,1.5699189453125,0.020560668781399727,-0.01986265368759632,0.044004473835229874
1758447619340892000,1.579891845703125,0.03471643477678299,0.0004697816038969904,0.028775455430150032
1758447619350864000,1.58986376953125,0.03888241946697235,0.015051919966936111,0.0136023610830307
1758447619360836900,1.5998369140625,0.039079226553440094,0.026279807090759277,0.004061054438352585
1758447619370809900,1.609809814453125,0.030414897948503494,0.03658544272184372,0.0028594359755516052
1758447619380782800,1.619782958984375,0.018927885219454765,0.041781533509492874,0.004542287439107895
1758447619390755800,1.629755859375,0.00902758352458477,0.030015423893928528,0.007339938078075647
1758447619400727800,1.639727783203125,0.005709018558263779,0.003430417738854885,0.015194665640592575
1758447619410700800,1.64970068359375,0.0014450311427935958,-0.03213050588965416,0.027297135442495346
1758447619420673800,1.659673828125,-0.006683202926069498,-0.055382564663887024,0.034620027989149094
1758447619430646800,1.669646728515625,-0.012577843852341175,-0.05517217516899109,0.03893861174583435
1758447619440618800,1.67961865234375,-0.020126041024923325,-0.04168432950973511,0.03411189839243889
1758447619450591700,1.689591796875,-0.030284935608506203,-0.023266173899173737,0.019420037046074867
1758447619460564700,1.699564697265625,-0.03554308041930199,-0.0009504822082817554,-0.003967311233282089
1758447619470538000,1.7095380859375,-0.027664383873343468,0.02719114162027836,-0.028055336326360703
1758447619480511000,1.719510986328125,-0.011936554685235023,0.05579056218266487,-0.033662088215351105
1758447619490482700,1.729482666015625,0.002457564929500222,0.05525260418653488,-0.03212997317314148
1758447619500456000,1.7394560546875,0.004889830015599728,0.032514266669750214,-0.030052173882722855
1758447619510429000,1.749428955078125,0.008532768115401268,0.0016567525453865528,-0.025186313316226006
1758447619520402000,1.75940185546875,0.008736499585211277,-0.018724951893091202,-0.017429590225219727
1758447619530374000,1.769373779296875,0.004069576505571604,-0.03389884531497955,-0.0031153657473623753
1758447619540347000,1.779346923828125,-0.004799282643944025,-0.05203257501125336,0.0004141215467825532
1758447619550319900,1.78931982421875,-0.01660374365746975,-0.06489484012126923,0.00896686315536499
1758447619560292900,1.79929296875,-0.017887387424707413,-0.06949891895055771,0.016999490559101105
1758447619570264800,1.809264892578125,-0.01164360623806715,-0.05283951386809349,0.021577997133135796
1758447619580237800,1.81923779296875,-0.0064922538585960865,-0.041847582906484604,0.019477827474474907
1758447619590210800,1.8292109375,0.003181145992130041,-0.047201335430145264,-0.003838414093479514
1758447619600184000,1.83918408203125,0.006335393991321325,-0.029501166194677353,-0.03092089854180813
1758447619610156800,1.84915673828125,0.006927947048097849,0.0012900352012366056,-0.05982258543372154
1758447619620128800,1.859128662109375,0.003585147438570857,0.02997174672782421,-0.07781597226858139
1758447619630102000,1.86910205078125,0.002912699244916439,0.05112709850072861,-0.07724951207637787
1758447619640074800,1.87907470703125,0.009350624866783619,0.05438707396388054,-0.06724348664283752
1758447619650047700,1.8890478515625,0.018127072602510452,0.04224785417318344,-0.03875352069735527
1758447619660020000,1.89902001953125,0.025749571621418,0.016223710030317307,-0.000922252656891942
1758447619669993000,1.908992919921875,0.027995947748422623,-0.010876083746552467,0.03549141436815262
1758447619679965700,1.918965576171875,0.020490894094109535,-0.038484539836645126,0.05993364006280899
1758447619689938700,1.928938720703125,0.011926966719329357,-0.04219698905944824,0.07512617856264114
1758447619699911000,1.938910888671875,0.01098713744431734,-0.02299373224377632,0.07166513055562973
1758447619709884000,1.9488837890625,0.01258157193660736,0.0008825715631246567,0.055701613426208496
1758447619719856600,1.958856689453125,0.020657608285546303,0.021148961037397385,0.037285853177309036
1758447619729830000,1.968829833984375,0.02340439148247242,0.0355508029460907,0.015804262831807137
1758447619739803000,1.978802978515625,0.022856580093503,0.04393257200717926,-0.001785116852261126
1758447619749774800,1.98877490234375,0.01750549115240574,0.050757721066474915,-0.009741044603288174
1758447619759747800,1.998747802734375,0.016353406012058258,0.044984783977270126,-0.003561711637303233
1758447619769720800,2.008720947265625,0.005730057135224342,0.02720046229660511,0.00788375549018383
1758447619779693800,2.01869384765625,-0.001201884588226676,0.015283881686627865,0.024052072316408157
1758447619789666000,2.028666015625,-0.007232612930238247,0.010363425128161907,0.03879799693822861
1758447619799638800,2.038638671875,-0.012140552513301373,0.02039661817252636,0.04285692051053047
1758447619809611800,2.04861181640625,-0.014312626793980598,0.02009940892457962,0.027827635407447815
1758447619819584800,2.058584716796875,-0.014800251461565495,0.013463344424962997,0.007416104432195425
1758447619829557000,2.068556884765625,-0.009321596473455429,0.009423862211406231,-0.00436039362102747
1758447619839529700,2.07852978515625,-0.004354001954197884,0.0007962851668708026,-0.0046243127435445786
1758447619849502700,2.088502685546875,-0.002026399364694953,0.004805141594260931,0.016940101981163025
1758447619859476000,2.09847607421875,0.00942066591233015,0.012583170086145401,0.04511261731386185
1758447619869449000,2.108448974609375,0.016466058790683746,0.015003716573119164,0.06872260570526123
1758447619879420700,2.118420654296875,0.030229007825255394,0.013969345018267632,0.07513443380594254
1758447619889394000,2.128393798828125,0.03695854917168617,0.016526512801647186,0.059415921568870544
1758447619899367000,2.138366943359375,0.039513055235147476,0.021817414090037346,0.031027691438794136
1758447619909340000,2.14833984375,0.037409424781799316,0.026314428076148033,-0.0032266860362142324
1758447619919312000,2.158311767578125,0.031015440821647644,0.036787308752536774,-0.02423875965178013
1758447619929284900,2.168284912109375,0.02714240550994873,0.04308808222413063,-0.026992468163371086
1758447619939257900,2.1782578125,0.017851434648036957,0.03845764324069023,-0.016029033809900284
1758447619949230800,2.18823095703125,0.020054135471582413,0.02286297082901001,-0.004735899157822132
1758447619959202800,2.198202880859375,0.024818796664476395,0.002257827902212739,0.005683984607458115
1758447619969175800,2.20817578125,0.023572171106934547,0.0022503710351884365,0.02154550515115261
1758447619979148800,2.218148681640625,0.019542541354894638,0.005257079843431711,0.032649289816617966
1758447619989121800,2.228121826171875,0.015807991847395897,0.006873086094856262,0.03574122115969658
1758447619999095000,2.238094970703125,0.019603528082370758,0.009395631961524487,0.03284929320216179
1758447620009066800,2.248066650390625,0.025361016392707825,0.00797430332750082,0.02370746061205864
1758447620019039700,2.258039794921875,0.027169568464159966,0.006197442300617695,0.012832175008952618
1758447620029013000,2.268012939453125,0.0319099947810173,0.005101018585264683,0.005746036302298307
1758447620038985700,2.27798583984375,0.027706196531653404,0.0014879080699756742,0.0015699334908276796
1758447620048958000,2.2879580078125,0.028685441240668297,-0.0010298443958163261,0.004202468320727348
1758447620058931000,2.297930908203125,0.027088342234492302,-0.0004732437082566321,0.009126919321715832
1758447620068904000,2.307904052734375,0.02575276792049408,0.0015624766238033772,0.005006209947168827
1758447620078877000,2.317876953125,0.030769364908337593,0.0014852449530735612,0.003997937310487032
1758447620088849200,2.32784912109375,0.033425867557525635,-0.004252003040164709,0.0026202842127531767
1758447620098822000,2.33782177734375,0.044133905321359634,-0.014843660406768322,0.0030599720776081085
1758447620108795000,2.347794921875,0.051772914826869965,-0.029955768957734108,0.008386560715734959
1758447620118767900,2.357767822265625,0.057186055928468704,-0.03777667507529259,0.011610317043960094
1758447620128740000,2.367739990234375,0.06279334425926208,-0.024822525680065155,0.015429290011525154
1758447620138712800,2.377712890625,0.060982126742601395,-0.00711703160777688,0.008636897429823875
1758447620148685800,2.387685791015625,0.051773447543382645,0.003162503708153963,-0.014268950559198856
1758447620158659000,2.3976591796875,0.04142147675156593,0.0007510114228352904,-0.034151047468185425
1758447620168632000,2.407632080078125,0.03200240805745125,-0.006208893842995167,-0.0453733392059803
1758447620178603800,2.417603759765625,0.023036610335111618,-0.02058889903128147,-0.05098621919751167
1758447620188577000,2.427576904296875,0.020141754299402237,-0.030346453189849854,-0.04339967295527458
1758447620198550000,2.437550048828125,0.02220064401626587,-0.0379556380212307,-0.028780249878764153
1758447620208523000,2.44752294921875,0.022943930700421333,-0.03881131112575531,-0.015199192799627781
1758447620218495000,2.457494873046875,0.019524699077010155,-0.030000509694218636,-0.003724164329469204
1758447620228468000,2.467468017578125,0.012626845389604568,-0.02141367830336094,-0.00021411814668681473
1758447620238441000,2.47744091796875,0.0030714236199855804,-0.006398244295269251,-0.0008788431296125054
1758447620248414000,2.4874140625,-0.005620867945253849,0.01251232996582985,0.00010519486386328936
1758447620258386000,2.497385986328125,-0.006681604776531458,0.028595158830285072,-0.00177952426020056
1758447620268359000,2.50735888671875,-0.004293282050639391,0.04306544363498688,-0.0023257385473698378
1758447620278332000,2.517331787109375,0.003216299694031477,0.04596509411931038,-0.009429188445210457
1758447620288305200,2.52730517578125,0.005696235224604607,0.040824130177497864,-0.01925997994840145
1758447620298278000,2.53727783203125,0.005979862064123154,0.03051796182990074,-0.024058198556303978
1758447620308249900,2.547249755859375,0.007340204436331987,0.014269749633967876,-0.018621355295181274
1758447620318223000,2.55722314453125,0.005604089703410864,-0.005111937876790762,-0.004865328781306744
1758447620328196000,2.567196044921875,0.006945790257304907,-0.023692812770605087,0.00774820102378726
1758447620338168800,2.5771689453125,0.0075756278820335865,-0.027705663815140724,0.017129452899098396
1758447620348141000,2.58714111328125,0.016340358182787895,-0.017764883115887642,0.018734006211161613
1758447620358114000,2.597114013671875,0.027277959510684013,-0.014280135743319988,0.011333081871271133
1758447620368087000,2.607087158203125,0.033676471561193466,-0.022037656977772713,-0.0005203816690482199
1758447620378059800,2.617059814453125,0.029463881626725197,-0.02298467792570591,-0.009105614386498928
1758447620388032000,2.627031982421875,0.021569740027189255,-0.017528926953673363,-0.013427658006548882
1758447620398005000,2.6370048828125,0.013948306441307068,-0.005461610853672028,-0.018806178122758865
1758447620407978000,2.64697802734375,0.007239803206175566,0.00013502225920092314,-0.02967001125216484
1758447620417951000,2.656950927734375,0.005676794331520796,-0.005891977343708277,-0.04033437371253967
1758447620427923000,2.6669228515625,0.010822554118931293,-0.013158945366740227,-0.03928136080503464
1758447620437896000,2.67689599609375,0.012721387669444084,-0.016825051978230476,-0.02437351644039154
1758447620447869200,2.686869140625,0.014421549625694752,-0.005601692944765091,-0.006646184716373682
1758447620457842000,2.696842041015625,0.014080931432545185,0.009221727959811687,0.004549744538962841
1758447620467814000,2.70681396484375,0.007996673695743084,0.023010510951280594,0.0044197821989655495
1758447620477787100,2.716787109375,0.00896659679710865,0.029402630403637886,0.004852279555052519
1758447620487760100,2.726760009765625,0.015119831077754498,0.025306954979896545,0.006684534251689911
1758447620497732900,2.73673291015625,0.016051404178142548,0.020113257691264153,0.01847141794860363
1758447620507705900,2.746705810546875,0.021706894040107727,0.024569258093833923,0.038776956498622894
1758447620517678000,2.756677978515625,0.020326310768723488,0.027520308271050453,0.04866820201277733
1758447620527651000,2.766651123046875,0.01776088774204254,0.020266922190785408,0.03994155675172806
1758447620537623800,2.776623779296875,0.007102916948497295,0.008804410696029663,0.01612863689661026
1758447620547597000,2.78659716796875,-0.003581685246899724,0.004995024763047695,-0.005916478578001261
1758447620557569000,2.796569091796875,-0.007472563534975052,0.014811436645686626,-0.0166157279163599
1758447620567542000,2.8065419921875,-0.00950855016708374,0.017433319240808487,-0.013135243207216263
1758447620577515000,2.816514892578125,-0.011663846671581268,0.019539879634976387,0.00279125920496881
1758447620587488000,2.826488037109375,-0.010262224823236465,0.018250642344355583,0.020435500890016556
1758447620597460000,2.8364599609375,-0.0034762241411954165,0.012656672857701778,0.033668216317892075
1758447620607433000,2.846432861328125,0.0019624833948910236,0.007268032990396023,0.036493830382823944
1758447620617406000,2.856406005859375,0.005726329050958157,-0.0020189424976706505,0.03338192403316498
1758447620627379000,2.86637890625,0.006299441214650869,-0.005695968866348267,0.030464697629213333
1758447620637351000,2.876350830078125,0.004941495135426521,-0.009285910055041313,0.025244370102882385
1758447620647324200,2.88632421875,0.005817142780870199,-0.0038123151753097773,0.019225625321269035
1758447620657297000,2.896296875,0.008613195270299911,-0.0009416937828063965,0.01895265281200409
1758447620667270000,2.906269775390625,0.00977273564785719,-0.0036184368655085564,0.020432304590940475
1758447620677243000,2.916242919921875,0.012407667003571987,-0.026685673743486404,0.030941937118768692
1758447620687215000,2.926215087890625,0.0034194989129900932,-0.057086456567049026,0.04002384841442108
1758447620697187800,2.936187744140625,0.002886333968490362,-0.0728374570608139,0.037886928766965866
1758447620707160800,2.946160888671875,0.006609166972339153,-0.06402425467967987,0.028872128576040268
1758447620717134000,2.956134033203125,0.005365470424294472,-0.039923448115587234,0.01979181356728077
1758447620727105800,2.966105712890625,0.006846454460173845,-0.010341853834688663,0.010803911834955215
1758447620737078800,2.976078857421875,0.007790545001626015,0.015384282916784286,0.0012114719720557332
1758447620747052000,2.986052001953125,0.01116556953638792,0.015422099269926548,-0.004145210143178701
1758447620757025000,2.99602490234375,0.008040349930524826,0.017607223242521286,0.002636795863509178
1758447620766996700,3.005996826171875,0.002826412906870246,0.016384566202759743,0.008055263198912144
1758447620776970000,3.015969970703125,0.0010436928132548928,-0.0027241474017500877,0.01173628494143486
1758447620786943000,3.02594287109375,-0.007256581448018551,-0.020506607368588448,0.015390940010547638
1758447620796916000,3.035916015625,-0.012137622572481632,-0.03639555722475052,0.017070597037672997
1758447620806888000,3.045887939453125,-0.012073973193764687,-0.038600388914346695,0.019638948142528534
1758447620816861000,3.05586083984375,-0.014570686966180801,-0.029883863404393196,0.017108678817749023
1758447620826834000,3.065833984375,-0.01534486748278141,-0.005170261021703482,0.014429805800318718
1758447620836807000,3.075806884765625,-0.01131230965256691,0.029950708150863647,0.009125054813921452
1758447620846779000,3.08577880859375,-0.005096757784485817,0.05482436716556549,0.004349474795162678
1758447620856751900,3.095751953125,0.000969923275988549,0.06221064180135727,0.004799549002200365
1758447620866724900,3.105724853515625,-0.0006958839949220419,0.050566237419843674,0.009336243383586407
1758447620876698000,3.115697998046875,-0.006229133810847998,0.028687570244073868,0.01979767344892025
1758447620886671000,3.125671142578125,-0.015340873040258884,0.0032679650466889143,0.03639476001262665
1758447620896642800,3.135642822265625,-0.021624868735671043,-0.01588841900229454,0.053827811032533646
1758447620906616000,3.145615966796875,-0.021316207945346832,-0.02701883390545845,0.06480829417705536
1758447620916589000,3.155589111328125,-0.012855344451963902,-0.018143316730856895,0.06693482398986816
1758447620926562000,3.16556201171875,-0.00044767739018425345,-0.003969707991927862,0.05969182774424553
1758447620936534000,3.175533935546875,0.008097341284155846,0.005097024142742157,0.04314134642481804
1758447620946507000,3.185507080078125,0.008041148073971272,0.015931028872728348,0.02725958451628685
1758447620956480000,3.19547998046875,0.010479272343218327,0.027287280187010765,0.018324945122003555
1758447620966453000,3.205452880859375,0.013318735174834728,0.03225727379322052,0.01985333301126957
1758447620976425000,3.215425048828125,0.012283298186957836,0.018371550366282463,0.023307986557483673
1758447620986398000,3.22539794921875,0.008869924582540989,0.004335892386734486,0.023302393034100533
1758447620996371000,3.235370849609375,0.0031649006996303797,-0.014110758900642395,0.013558685779571533
1758447621006344200,3.24534423828125,-0.0032059133518487215,-0.04297809302806854,-0.0006599313346669078
1758447621016316000,3.25531591796875,-0.009048888459801674,-0.06923100352287292,-0.01744210720062256
1758447621026289000,3.265288818359375,-0.011434282176196575,-0.08749469369649887,-0.031138744205236435
1758447621036262100,3.27526220703125,-0.015029549598693848,-0.09210488945245743,-0.03608609735965729
1758447621046235400,3.2852353515625,-0.021793978288769722,-0.08457028120756149,-0.03308045491576195
1758447621056207400,3.295207275390625,-0.021023260429501534,-0.05159315466880798,-0.02311250939965248
1758447621066180400,3.305180419921875,-0.01908048428595066,-0.020676249638199806,-0.014314224012196064
1758447621076153300,3.3151533203125,-0.015846608206629753,-0.009282181970775127,-0.009097624570131302
1758447621086126300,3.325126220703125,-0.012093414552509785,-0.007183876819908619,-0.010060090571641922
1758447621096098300,3.335098388671875,-0.0019036275334656239,-0.015960058197379112,-0.009723467752337456
1758447621106071300,3.3450712890625,0.003885552054271102,-0.02641030214726925,-0.0062365904450416565
1758447621116044300,3.355044189453125,0.008363124914467335,-0.02684146724641323,-0.005073321983218193
1758447621126017300,3.365017333984375,0.006970025133341551,-0.014245781116187572,-0.011415373533964157
1758447621135989500,3.374989501953125,0.010090983472764492,-0.002302569104358554,-0.02310665138065815
1758447621145962200,3.384962158203125,0.013583453372120857,0.0017052220646291971,-0.03434492275118828
1758447621155935200,3.394935302734375,0.01142975501716137,-0.006842193193733692,-0.047929175198078156
1758447621165908200,3.404908203125,0.007020625285804272,-0.025981532409787178,-0.053533267229795456
1758447621175880400,3.41488037109375,-0.001395496423356235,-0.03706534206867218,-0.044971201568841934
1758447621185853200,3.424853271484375,-0.004358529578894377,-0.034086331725120544,-0.02130928263068199
1758447621195826200,3.434826171875,-0.0031851406674832106,-0.03852981701493263,0.010373012162744999
1758447621205799400,3.44479931640625,0.0005637911963276565,-0.04164411500096321,0.031246868893504143
1758447621215772400,3.4547724609375,0.010274475440382957,-0.0461062416434288,0.03506637364625931
1758447621225744100,3.464744140625,0.014838334172964096,-0.039510924369096756,0.02376684918999672
1758447621235717400,3.47471728515625,0.016651680693030357,-0.022644059732556343,0.0021401161793619394
1758447621245690400,3.4846904296875,0.01643330231308937,-0.0029875340405851603,-0.018073808401823044
1758447621255663400,3.494663330078125,0.012314456515014172,0.010757572948932648,-0.03525519371032715
1758447621265635300,3.50463525390625,0.008934373036026955,0.013936588540673256,-0.045811429619789124
1758447621275608300,3.5146083984375,0.003087935270741582,0.005344964098185301,-0.05114254727959633
1758447621285581300,3.524581298828125,-0.007259510923177004,-0.011802064254879951,-0.04929085075855255
1758447621295554300,3.53455419921875,-0.015604525804519653,-0.030409038066864014,-0.03895432502031326
1758447621305526300,3.5445263671875,-0.0226813443005085,-0.03958442807197571,-0.02237587980926037
1758447621315499300,3.554499267578125,-0.02473464049398899,-0.047333162277936935,-0.012503541074693203
1758447621325472300,3.56447216796875,-0.020200876519083977,-0.05656633898615837,-0.00421338714659214
1758447621335445500,3.574445556640625,-0.012199674732983112,-0.06241943687200546,-0.004845621529966593
1758447621345417200,3.584417236328125,-0.0009928264189511538,-0.06245085969567299,-0.01429504994302988
1758447621355390200,3.59439013671875,0.013263341039419174,-0.04563246667385101,-0.023494141176342964
1758447621365363500,3.604363525390625,0.019930299371480942,-0.016637565568089485,-0.02748968079686165
1758447621375336400,3.61433642578125,0.01786448433995247,0.00945262424647808,-0.029819414019584656
1758447621385308200,3.62430810546875,0.015442339703440666,0.035110317170619965,-0.027485420927405357
1758447621395281400,3.634281494140625,0.01571504771709442,0.053828079253435135,-0.024774055927991867
1758447621405254400,3.64425439453125,0.010484598577022552,0.05564621835947037,-0.02003522776067257
1758447621415227400,3.654227294921875,0.005240302067250013,0.049666356295347214,-0.015658322721719742
1758447621425199400,3.664199462890625,0.004738562274724245,0.03206472471356392,-0.006927680689841509
1758447621435172400,3.67417236328125,0.001734516816213727,0.010251572355628014,0.010631338693201542
1758447621445145300,3.684145263671875,0.0026429209392517805,-0.003864779369905591,0.029094502329826355
1758447621455118300,3.694118408203125,0.008947421796619892,-0.0055004931055009365,0.05053774267435074
1758447621465090300,3.70409033203125,0.015302257612347603,0.0010498181218281388,0.06341945379972458
1758447621475063300,3.714063232421875,0.016940101981163025,0.014370683580636978,0.060681454837322235
1758447621485036300,3.724036376953125,0.01546231284737587,0.019844811409711838,0.044059868901968
1758447621495009500,3.734009521484375,0.010485664010047913,0.025018800050020218,0.01906690187752247
1758447621504981200,3.743981201171875,0.002712695859372616,0.03285861387848854,-0.0008391620358452201
1758447621514954200,3.753954345703125,-0.00612180819734931,0.034274350851774216,-0.006691991351544857
1758447621524927500,3.763927490234375,-0.010382600128650665,0.027518710121512413,0.002998985582962632
1758447621534900500,3.773900390625,-0.012051602825522423,0.004306597635149956,0.01907782070338726
1758447621544872200,3.7838720703125,-0.013482785783708096,-0.01540745235979557,0.03313078731298447
1758447621554845400,3.793845458984375,-0.01786608248949051,-0.031025294214487076,0.044012464582920074
1758447621564818400,3.803818359375,-0.01757180318236351,-0.032519325613975525,0.05565048009157181
1758447621574791400,3.81379150390625,-0.015146462246775627,-0.01901337131857872,0.06981956213712692
1758447621584763400,3.823763427734375,-0.014422615058720112,0.010145312175154686,0.07942052185535431
1758447621594736400,3.833736328125,-0.013339241035282612,0.04109816625714302,0.07478635758161545
1758447621604709400,3.84370947265625,-0.01136876828968525,0.06003217771649361,0.0511433444917202
1758447621614682400,3.853682373046875,-0.014771223068237305,0.05318945273756981,0.017583521082997322
1758447621624654300,3.863654296875,-0.02148531749844551,0.02947906218469143,-0.014956312254071236
1758447621634627300,3.87362744140625,-0.027420172467827797,-0.003932689782232046,-0.028348283842206
1758447621644600300,3.883600341796875,-0.03369085118174553,-0.02714666537940502,-0.01471609529107809
1758447621654573600,3.893573486328125,-0.038361769169569016,-0.03813700005412102,0.012328571639955044
1758447621664545300,3.903545166015625,-0.04523592069745064,-0.036979854106903076,0.03622085601091385
1758447621674518300,3.913518310546875,-0.04840348660945892,-0.02099316567182541,0.04987727850675583
1758447621684491500,3.923491455078125,-0.04673687741160393,0.0023156185634434223,0.05083495005965233
1758447621698203400,3.937203369140625,-0.03656679764389992,0.03019971400499344,0.03623789921402931
1758447621708176400,3.94717626953125,-0.02479908987879753,0.033010948449373245,0.036987047642469406
1758447621718148400,3.9571484375,-0.0229955967515707,0.04236183688044548,0.027240142226219177
1758447621728121300,3.967121337890625,-0.024054203182458878,0.01852281764149666,0.006023005116730928
1758447621738094300,3.97709423828125,-0.027700603008270264,0.004144411068409681,-0.005282912403345108
1758447621748067300,3.9870673828125,-0.0393466055393219,-0.01691639982163906,-0.005513808690011501
1758447621758039300,3.997039306640625,-0.0506645105779171,-0.02959490939974785,-0.00195129809435457
1758447621768012300,4.00701220703125,-0.054175619035959244,-0.019025089219212532,0.00923504400998354
1758447621777985300,4.0169853515625,-0.05049166828393936,0.008085090667009354,0.023268304765224457
1758447621787958300,4.026958251953125,-0.042152248322963715,0.03020317666232586,0.021944979205727577
1758447621797930200,4.03693017578125,-0.03167004510760307,0.032341960817575455,-0.001273257308639586
1758447621807903200,4.0469033203125,-0.026272883638739586,0.01913401298224926,-0.03827574849128723
1758447621817876200,4.056876220703125,-0.033424269407987595,0.012373578734695911,-0.06490762531757355
1758447621827849500,4.066849365234375,-0.044500622898340225,0.01534406840801239,-0.06763656437397003
1758447621837821200,4.0768212890625,-0.05213004723191261,0.029407955706119537,-0.048222921788692474
1758447621847794200,4.086794189453125,-0.05156971886754036,0.04980910196900368,-0.019634954631328583
1758447621857767400,4.096767333984375,-0.03947177529335022,0.05812162533402443,0.003934021573513746
1758447621867740400,4.106740478515625,-0.021450696513056755,0.05501078814268112,0.015137407928705215
1758447621877712100,4.116712158203125,-0.004256530199199915,0.03930426388978958,0.018188856542110443
1758447621887685400,4.126685302734375,0.00387303507886827,0.0175012294203043,0.01554993074387312
1758447621897658400,4.136658447265625,0.004369714763015509,0.005570267792791128,0.015302257612347603
1758447621907631400,4.14663134765625,-0.0018330537714064121,0.007170028518885374,0.016080433502793312
1758447621917603300,4.156603271484375,-0.003965446725487709,0.008441687561571598,0.013115535490214825
1758447621927576300,4.166576416015625,-0.005879194475710392,0.011372762732207775,0.009241435676813126
1758447621937549300,4.17654931640625,-0.0030125677585601807,0.01287585124373436,0.005689577199518681
1758447621947522300,4.186522216796875,0.0030277478508651257,0.006862965878099203,0.00043116576853208244
1758447621957494300,4.196494384765625,0.005528722424060106,-0.00977460015565157,-0.0004799016169272363
1758447621967467300,4.20646728515625,0.005498628597706556,-0.035536687821149826,-0.0038535939529538155
1758447621977440300,4.216440185546875,0.010990599170327187,-0.0459243468940258,-0.007436078507453203
1758447621987413500,4.22641357421875,0.0013313142117112875,-0.059269979596138,-0.0051987566985189915
1758447621997386500,4.236386474609375,-0.01516031101346016,-0.08168234676122665,-0.004522846546024084
1758447622007359200,4.246359130859375,-0.020903151482343674,-0.08798631280660629,-0.000041811628761934116
1758447622017332200,4.256332275390625,-0.01918860897421837,-0.06637050211429596,0.004098871257156134
1758447622027304400,4.266304443359375,-0.01047554425895214,-0.04694833233952522,-0.00458702864125371
1758447622037277400,4.27627734375,-0.0037622477393597364,-0.03658118098974228,-0.023203855380415916
1758447622047250200,4.286250244140625,0.004340952727943659,-0.008528507314622402,-0.040291495621204376
1758447622057223400,4.296223388671875,0.013681990094482899,0.02053084224462509,-0.05469706654548645
1758447622067195400,4.3061953125,0.021405689418315887,0.038247786462306976,-0.06925763189792633
1758447622077168000,4.316168212890625,0.022650450468063354,0.06059330701828003,-0.07469633966684341
1758447622087141400,4.326141357421875,0.02509683184325695,0.0552414171397686,-0.06912394613027573
1758447622097114400,4.3361142578125,0.016772322356700897,0.05109194666147232,-0.041242510080337524
1758447622107086300,4.34608642578125,0.010725348256528378,0.04050508141517639,0.00035473305615596473
1758447622117059300,4.356059326171875,0.013489443808794022,0.019177688285708427,0.03503255173563957
1758447622127032300,4.3660322265625,0.015133146196603775,-0.0005350290448404849,0.06211024150252342
1758447622137005300,4.37600537109375,0.01901124231517315,-0.01453153882175684,0.07304731011390686
1758447622146977300,4.385977294921875,0.019336679950356483,-0.030648456886410713,0.06539738178253174
1758447622156950300,4.3959501953125,0.01990952529013157,-0.030407439917325974,0.04538106173276901
1758447622166923300,4.40592333984375,0.024227840825915337,-0.010017480701208115,0.02696104347705841
1758447622176896300,4.415896240234375,0.028618328273296356,0.0222131609916687,0.01932176575064659
1758447622186868200,4.4258681640625,0.03286820277571678,0.05612532049417496,0.01997610554099083
1758447622196841200,4.43584130859375,0.03199921175837517,0.058770373463630676,0.0166170597076416
1758447622206814200,4.445814208984375,0.02761591412127018,0.031257789582014084,0.0034669029992073774
1758447622216787500,4.455787353515625,0.013093964196741581,-0.012104599736630917,-0.011264106258749962
1758447622226759200,4.46575927734375,0.0013976269401609898,-0.05398893356323242,-0.025247300043702126
1758447622236732200,4.475732177734375,0.000696150294970721,-0.07620928436517715,-0.023063773289322853
1758447622246705400,4.485705322265625,0.0008855010382831097,-0.07483456283807755,-0.004860535264015198
1758447622256678400,4.495678466796875,-0.00088949577184394,-0.05625687912106514,0.014731807634234428
1758447622266650000,4.505650146484375,0.00005512743518920615,-0.025299496948719025,0.023900005966424942
1758447622276623400,4.515623291015625,0.005642971955239773,0.008107461035251617,0.02454182878136635
1758447622286596400,4.525596435546875,0.008842227049171925,0.029287846758961678,0.021754564717411995
1758447622296569300,4.5355693359375,0.015279619954526424,0.03777401149272919,0.021147895604372025
1758447622306541300,4.545541259765625,0.02027890644967556,0.0309872105717659,0.019362512975931168
1758447622316514300,4.555514404296875,0.019962523132562637,0.01019484642893076,0.010970359668135643
1758447622326487300,4.5654873046875,0.017545970156788826,-0.015019429847598076,0.006332730874419212
1758447622336460300,4.575460205078125,0.011739213950932026,-0.04527320712804794,-0.007130347657948732
1758447622346432300,4.585432373046875,0.005056277383118868,-0.0691084936261177,-0.014299843460321426
1758447622356405200,4.5954052734375,0.001618403010070324,-0.0710131898522377,-0.010127468965947628
1758447622366378200,4.605378173828125,-0.0011017497163265944,-0.057742923498153687,0.001332645770162344
1758447622376351200,4.615351318359375,-0.00836978293955326,-0.03856417164206505,0.012310994789004326
1758447622386323200,4.6253232421875,-0.01079911831766367,-0.016586700454354286,0.01522795483469963
1758447622396296200,4.635296142578125,-0.0043984767980873585,0.01823200099170208,0.013936854898929596
1758447622406269200,4.645269287109375,-0.003938282374292612,0.03344850242137909,0.008082959800958633
1758447622416242400,4.655242431640625,-0.004264253657311201,0.03232251852750778,-0.0008905610884539783
1758447622426214100,4.665214111328125,-0.007183344569057226,0.03045244701206684,-0.005393700208514929
1758447622436187400,4.6751875,-0.011446266435086727,0.02202221192419529,-0.005441104527562857
1758447622446160400,4.685160400390625,-0.022835541516542435,0.013854296877980232,-0.0012961605098098516
1758447622456133400,4.69513330078125,-0.029283320531249046,0.008777778595685959,0.005013667047023773
1758447622466105300,4.705105224609375,-0.03231692686676979,0.004765460267663002,0.010276872664690018
1758447622476078300,4.715078369140625,-0.03351641446352005,0.0034703651908785105,0.012474512681365013
1758447622486051300,4.72505126953125,-0.03562483936548233,0.0036160401068627834,0.009724000468850136
1758447622496024300,4.7350244140625,-0.035953473299741745,0.0009187905816361308,0.0031007183715701103
1758447622505996300,4.744996337890625,-0.03305275738239288,-0.002424541860818863,-0.003611512714996934
1758447622515969300,4.75496923828125,-0.030796261504292488,-0.002235191175714135,-0.01720535196363926
1758447622525942300,4.7649423828125,-0.02953445538878441,0.005530852824449539,-0.02636795863509178
1758447622535915300,4.774915283203125,-0.021496236324310303,0.022353775799274445,-0.030778951942920685
1758447622545887200,4.78488720703125,-0.01432407833635807,0.042394593358039856,-0.026310432702302933
1758447622555860200,4.794860107421875,-0.007865645922720432,0.057426806539297104,-0.019834691658616066
1758447622565833200,4.804833251953125,-0.00464641721919179,0.05446350947022438,-0.013616476207971573
1758447622575806500,4.814806396484375,-0.00324825756251812,0.038729019463062286,-0.002710032742470503
1758447622585778200,4.824778076171875,-0.0029726203065365553,0.012284096330404282,0.00660543842241168
1758447622595751200,4.834751220703125,-0.005736182443797588,-0.02262302115559578,0.01582716591656208
1758447622605724400,4.844724365234375,-0.010928814299404621,-0.06267989426851273,0.008729309774935246
1758447622615697400,4.854697509765625,-0.023690681904554367,-0.07515387237071991,0.005564941558986902
1758447622625669000,4.864669189453125,-0.02779407985508442,-0.06524957716464996,0.005906891077756882
1758447622635642400,4.874642333984375,-0.030368026345968246,-0.05187731236219406,0.009552759118378162
1758447622645615400,4.884615478515625,-0.02846546284854412,-0.05050178989768028,0.016416257247328758
1758447622655588400,4.89458837890625,-0.026640931144356728,-0.03461576625704765,0.016039153560996056
1758447622665560300,4.904560302734375,-0.02226509153842926,0.0020748688839375973,0.004652542527765036
1758447622675533300,4.914533203125,-0.02130741998553276,0.022296782582998276,-0.014791196212172508
1758447622685506300,4.92450634765625,-0.019392605870962143,0.026688335463404655,-0.029284652322530746
1758447622695479300,4.934479248046875,-0.021103421226143837,0.016570987179875374,-0.024655278772115707
1758447622705451300,4.944451171875,-0.024444889277219772,0.0024895230308175087,-0.007346329744905233
1758447622715424300,4.95442431640625,-0.02130289189517498,-0.007759386207908392,0.010498447343707085
1758447622725397200,4.964397216796875,-0.020550549030303955,-0.019144399091601372,0.021225659176707268
1758447622735369200,4.974369140625,-0.020843230187892914,-0.02756611444056034,0.021166006103157997
1758447622745342200,4.98434228515625,-0.021696772426366806,-0.02761697955429554,0.015730226412415504
1758447622755315200,4.994315185546875,-0.01889672502875328,-0.02057291939854622,0.007617439609020948
1758447622765288400,5.004288330078125,-0.01672252081334591,-0.009483516216278076,-0.0052363071590662
1758447622775260200,5.01426025390625,-0.014039119705557823,0.02521480992436409,-0.019696205854415894
1758447622785233200,5.024233154296875,-0.009152219630777836,0.04092532768845558,-0.038415830582380295
1758447622795206400,5.034206298828125,-0.010420949198305607,0.02768861874938011,-0.06346578896045685
1758447622805179400,5.044179443359375,-0.01859232597053051,-0.001967277145013213,-0.08681931346654892
1758447622815151000,5.054151123046875,-0.03001968376338482,-0.03229641914367676,-0.09732601791620255
1758447622825124400,5.064124267578125,-0.03654522821307182,-0.03587890416383743,-0.0860065221786499
1758447622835097300,5.074097412109375,-0.0371771976351738,-0.02063577063381672,-0.06227802112698555
1758447622845070300,5.0840703125,-0.040889110416173935,-0.0056919739581644535,-0.0390496626496315
1758447622855042300,5.094042236328125,-0.03658890351653099,0.004067711997777224,-0.028001541271805763
1758447622865015300,5.104015380859375,-0.025478195399045944,0.012896889820694923,-0.02576395310461521
1758447622874988300,5.11398828125,-0.009819074533879757,0.018513496965169907,-0.025980466976761818
1758447622884961300,5.123961181640625,0.00210709311068058,0.01423219870775938,-0.02719992958009243
1758447622894933200,5.133933349609375,0.004825914278626442,-0.004351072479039431,-0.026398317888379097
1758447622904906200,5.14390625,-0.003242398612201214,-0.0275671798735857,-0.022052304819226265
1758447622914879200,5.153879150390625,-0.01398638915270567,-0.03798333555459976,-0.008100003935396671
1758447622924852500,5.1638525390625,-0.027351995930075645,-0.04856487363576889,0.003910852130502462
1758447622934824200,5.17382421875,-0.03588050231337547,-0.059590358287096024,0.010204700753092766
1758447622944797200,5.183797119140625,-0.03870478644967079,-0.060085974633693695,0.00812184251844883
1758447622954770400,5.1937705078125,-0.03238776698708534,-0.050022419542074203,-0.0015081481542438269
1758447622964743400,5.203743408203125,-0.028172515332698822,-0.03232411667704582,-0.019292471930384636
1758447622974715100,5.213715087890625,-0.02027810737490654,0.007680556736886501,-0.031197600066661835
1758447622984688400,5.2236884765625,-0.017233582213521004,0.04914331063628197,-0.039213184267282486
1758447622994661400,5.233661376953125,-0.021942051127552986,0.06393744051456451,-0.04707137122750282
1758447623004634400,5.24363427734375,-0.024692563340067863,0.06166602671146393,-0.04614698886871338
1758447623014606300,5.2536064453125,-0.024353010579943657,0.048885785043239594,-0.03254649043083191
1758447623024579300,5.263579345703125,-0.02333807945251465,0.015272430144250393,-0.010032926686108112
1758447623034552300,5.27355224609375,-0.0258672833442688,-0.024457139894366264,0.013032444752752781
1758447623044525300,5.283525390625,-0.029920082539319992,-0.0598103366792202,0.027664916589856148
1758447623054497000,5.2934970703125,-0.035767052322626114,-0.07306116074323654,0.031004788354039192
1758447623064469800,5.3034697265625,-0.038109567016363144,-0.059296078979969025,0.024815600365400314
1758447623074442800,5.31344287109375,-0.04218420386314392,-0.03629755228757858,0.002572613535448909
1758447623084415000,5.3234150390625,-0.04180976375937462,0.00014647385978605598,-0.022174810990691185
1758447623094388000,5.333387939453125,-0.03766588494181633,0.052009403705596924,-0.03717533126473427
1758447623104360700,5.343360595703125,-0.032519325613975525,0.10259668529033661,-0.030365629121661186
1758447623114334000,5.353333984375,-0.027289144694805145,0.15887460112571716,-0.008016115054488182
1758447623124306000,5.363305908203125,-0.016888702288269997,0.21368326246738434,0.025244902819395065
1758447623134279000,5.37327880859375,-0.0010988202411681414,0.27259930968284607,0.053653109818696976
1758447623144252000,5.383251953125,0.0006474144756793976,0.27178409695625305,0.04909244552254677
1758447623154225000,5.393224853515625,-0.0003664509567897767,0.2698756754398346,0.03693777695298195
1758447623164196900,5.40319677734375,-0.001817873795516789,0.32890838384628296,0.03429272770881653
1758447623174170000,5.413170166015625,0.015104384161531925,0.43264222145080566,0.0609632171690464
1758447623184142800,5.423142822265625,0.045097969472408295,0.5452055335044861,0.12809911370277405
1758447623194115800,5.43311572265625,0.10487101972103119,0.6345178484916687,0.2221957892179489
1758447623204088000,5.443088134765625,0.16691681742668152,0.7446403503417969,0.33388423919677734
1758447623214061000,5.45306103515625,0.20392729341983795,0.8302679061889648,0.44415321946144104
1758447623224033800,5.46303369140625,0.22922812402248383,0.8437429666519165,0.4971514642238617
1758447623234006800,5.4730068359375,0.26476216316223145,0.8781722784042358,0.492309033870697
1758447623243979000,5.48297900390625,0.30362141132354736,0.9933763742446899,0.48341113328933716
1758447623253952000,5.492951904296875,0.33003491163253784,1.1462292671203613,0.46554452180862427
1758447623263924700,5.5029248046875,0.3174107074737549,1.2657191753387451,0.4377592206001282
1758447623273898000,5.51289794921875,0.2655712068080902,1.3933302164077759,0.3775893747806549
1758447623283870000,5.522869873046875,0.02846439741551876,1.3591519594192505,0.3230164051055908
1758447623293843000,5.532843017578125,-0.19820310175418854,1.4367990493774414,0.32856377959251404
1758447623303816000,5.54281591796875,-0.3361295461654663,1.5284442901611328,0.3286018371582031
1758447623313789000,5.552788818359375,-0.39952075481414795,1.6076935529708862,0.3613446056842804
1758447623323761000,5.562760986328125,-0.3268319070339203,1.760111689567566,0.4177980422973633
1758447623333734100,5.572734130859375,-0.2823459506034851,1.9343700408935547,0.4462922513484955
1758447623343707000,5.582706787109375,-0.3480956554412842,2.0510997772216797,0.464597225189209
1758447623353680000,5.592679931640625,-0.5089215636253357,1.908575415611267,0.3590354025363922
1758447623363652000,5.602652099609375,-0.6916404962539673,1.5936353206634521,0.1770746409893036
1758447623373625000,5.612625,-0.8613044023513794,1.3421168327331543,0.006327670533210039
1758447623383597800,5.622597900390625,-0.9871461987495422,1.1367878913879395,-0.12914440035820007
1758447623393570000,5.632570068359375,-1.0599759817123413,0.893096387386322,-0.22533591091632843
1758447623403543000,5.64254296875,-1.069809079170227,0.6502102613449097,-0.2777107059955597
1758447623413516000,5.65251611328125,-0.947496771812439,0.7847110629081726,-0.23617684841156006
1758447623423488800,5.66248876953125,-0.7006177306175232,1.0775741338729858,-0.22306397557258606
1758447623433461000,5.6724609375,-0.39805203676223755,1.1066813468933105,-0.3197513818740845
1758447623443434000,5.68243408203125,-0.30484911799430847,0.856779932975769,-0.5056493282318115
1758447623453407000,5.692406982421875,-0.40804553031921387,0.5889474153518677,-0.6468650698661804
1758447623463380000,5.7023798828125,-0.5293855667114258,0.4189748764038086,-0.685382604598999
1758447623473352000,5.71235205078125,-0.6321987509727478,0.32955899834632874,-0.6308677196502686
1758447623483325000,5.722324951171875,-0.7353760004043579,0.17752951383590698,-0.5730235576629639
1758447623493298000,5.7322978515625,-0.8813886046409607,-0.1219506710767746,-0.5719601511955261
1758447623503271000,5.74227099609375,-1.1029281616210938,-0.47849759459495544,-0.5910292267799377
1758447623513243000,5.752242919921875,-1.3465200662612915,-0.8283674716949463,-0.6720670461654663
1758447623523216100,5.762216064453125,-1.611210584640503,-1.2282823324203491,-0.8103956580162048
1758447623533188900,5.77218896484375,-1.8439226150512695,-1.58781099319458,-0.8808160424232483
1758447623543161900,5.782161865234375,-1.989270806312561,-2.0115771293640137,-0.8547455668449402
1758447623553134000,5.792134033203125,-1.9931433200836182,-2.4993770122528076,-0.7354452610015869
1758447623563107000,5.802107177734375,-1.8774363994598389,-2.896080493927002,-0.5435924530029297
1758447623573079800,5.812079833984375,-1.7034974098205566,-3.0052926540374756,-0.4165029525756836
1758447623583052000,5.822052001953125,-1.5404514074325562,-2.841456174850464,-0.2363813817501068
1758447623593025000,5.83202490234375,-1.277819275856018,-2.529750347137451,-0.0735597014427185
1758447623602998000,5.841998046875,-0.9545192718505859,-2.095261573791504,0.02799035608768463
1758447623612970800,5.851970703125,-0.7235949635505676,-2.096346378326416,0.22600942850112915
1758447623622943000,5.86194287109375,-0.6780804991722107,-2.027561664581299,0.3586772084236145
1758447623632916000,5.871916015625,-0.6220454573631287,-1.9236505031585693,0.42010727524757385
1758447623642889000,5.881888916015625,-0.4852609634399414,-1.4163310527801514,0.43004539608955383
1758447623652862000,5.891862060546875,-0.358192503452301,-1.3726341724395752,0.4023069739341736
1758447623662834000,5.901833984375,-0.27547818422317505,-1.3304170370101929,0.3217964172363281
1758447623672807000,5.911806884765625,-0.0788135901093483,-1.429651141166687,0.189518004655838
1758447623682780000,5.92177978515625,0.19283416867256165,-1.6778050661087036,0.10751713812351227
1758447623692753000,5.9317529296875,0.49025121331214905,-2.160614252090454,0.0897408053278923
1758447623702724900,5.941724853515625,0.7726333737373352,-2.9827942848205566,0.1544649451971054
1758447623712697900,5.95169775390625,0.9928293824195862,-3.9698634147644043,0.25615161657333374
1758447623722671000,5.961671142578125,1.1092084646224976,-4.964138507843018,0.4370976984500885
1758447623732642800,5.971642822265625,1.1755478382110596,-5.686136722564697,0.6875765323638916
1758447623742616000,5.981615966796875,1.296207308769226,-5.802088260650635,0.922465443611145
1758447623752589000,5.991589111328125,1.4343165159225464,-5.896179676055908,0.9974328875541687
1758447623762562000,6.00156201171875,1.3847582340240479,-6.04364013671875,0.9235336780548096
1758447623772534000,6.011533935546875,1.3572670221328735,-5.833343982696533,0.8504921793937683
1758447623782507000,6.021507080078125,1.5435843467712402,-5.219340801239014,0.7242120504379272
1758447623792480000,6.03147998046875,1.9498826265335083,-4.747384071350098,0.7255984544754028
1758447623802453000,6.041452880859375,2.403136968612671,-4.365508079528809,0.7079542279243469
1758447623812425000,6.051425048828125,2.8114991188049316,-4.082547187805176,0.5791259407997131
1758447623822398000,6.06139794921875,3.2201857566833496,-3.9289844036102295,0.29697707295417786
1758447623832371000,6.071370849609375,3.592839241027832,-3.7993452548980713,-0.08660626411437988
1758447623842344000,6.081343994140625,3.8738064765930176,-3.7217137813568115,-0.43497809767723083
1758447623852316000,6.09131591796875,3.9480295181274414,-3.826375961303711,-0.5678908824920654
1758447623862289000,6.101288818359375,3.843463659286499,-4.058412551879883,-0.4081648588180542
1758447623872262000,6.111261962890625,3.6337523460388184,-4.474022388458252,0.040645964443683624
1758447623882233900,6.12123388671875,3.4409916400909424,-5.072323799133301,0.7079156041145325
1758447623892206800,6.131206787109375,3.3560280799865723,-5.699141025543213,1.4805105924606323
1758447623902179800,6.141179931640625,3.391263008117676,-6.04481315612793,2.207265615463257
1758447623912153000,6.151153076171875,3.5414879322052,-6.080126762390137,2.6708500385284424
1758447623922124800,6.161124755859375,3.7433884143829346,-5.9617509841918945,2.816756010055542
1758447623932097800,6.171097900390625,3.9343690872192383,-5.676518440246582,2.7553391456604004
1758447623942071000,6.181071044921875,4.029650688171387,-5.327226161956787,2.5883593559265137
1758447623952044000,6.1910439453125,3.933762788772583,-5.150595188140869,2.447755813598633
1758447623962015700,6.201015625,3.6880335807800293,-5.249861240386963,2.474062204360962
1758447623971989000,6.210989013671875,3.3810513019561768,-5.482798099517822,2.7319204807281494
1758447623981962000,6.2209619140625,3.067133665084839,-5.375857353210449,3.175462007522583
1758447623991935000,6.23093505859375,2.8444364070892334,-4.671958923339844,3.5625228881835938
1758447624001907000,6.240906982421875,2.708343744277954,-3.7068564891815186,3.598666191101074
1758447624011880000,6.2508798828125,2.550941228866577,-2.727158546447754,3.2702627182006836
1758447624021853000,6.26085302734375,2.407351016998291,-1.8192412853240967,2.7668209075927734
1758447624031825000,6.270824951171875,2.316225528717041,-1.0987670421600342,2.3006832599639893
1758447624041798000,6.2807978515625,2.197614908218384,-0.702048659324646,2.0128586292266846
1758447624051771600,6.290771728515625,1.985611081123352,-0.7035248875617981,1.9376195669174194
1758447624061744600,6.30074462890625,1.7220840454101562,-1.1107616424560547,2.0622594356536865
1758447624071716900,6.310716796875,1.47774338722229,-1.6355150938034058,2.3790366649627686
1758447624081689600,6.320689697265625,1.3019616603851318,-1.973809838294983,2.7736568450927734
1758447624091662600,6.33066259765625,1.204827904701233,-2.058208703994751,3.079101085662842
1758447624101635600,6.340635498046875,1.1939393281936646,-1.944288969039917,3.238856554031372
1758447624111607800,6.35060791015625,1.2129329442977905,-1.7750290632247925,3.2778160572052
1758447624121580500,6.36058056640625,1.1578388214111328,-1.5230910778045654,3.1865453720092773
1758447624131553500,6.370553466796875,1.0186541080474854,-1.2988330125808716,2.9273579120635986
1758447624141526800,6.38052685546875,0.8769807815551758,-1.1277978420257568,2.5470192432403564
1758447624151498800,6.390498779296875,0.7930941581726074,-0.9540351033210754,2.1341373920440674
1758447624161471500,6.400471435546875,0.7672982215881348,-0.7713225483894348,1.7451257705688477
1758447624171444700,6.41044482421875,0.7133724093437195,-0.5539242029190063,1.4169985055923462
1758447624181416700,6.420416748046875,0.599385678768158,-0.26220470666885376,1.1488118171691895
1758447624191389700,6.4303896484375,0.4420927166938782,0.18953077495098114,0.8244438171386719
1758447624201362700,6.44036279296875,0.27819034457206726,0.6889091730117798,0.4031141698360443
1758447624211335700,6.450335693359375,0.11118697375059128,1.1556951999664307,-0.03278378024697304
1758447624221307600,6.4603076171875,-0.0504397377371788,1.4937950372695923,-0.3636261522769928
1758447624231280600,6.47028076171875,-0.1984473168849945,1.6769994497299194,-0.540289580821991
1758447624241253600,6.480253662109375,-0.3260859549045563,1.6892495155334473,-0.6004578471183777
1758447624251226600,6.4902265625,-0.4096525013446808,1.5084258317947388,-0.6060733795166016
1758447624261198800,6.50019873046875,-0.43142515420913696,1.1780205965042114,-0.5723500847816467
1758447624271171600,6.510171630859375,-0.39089637994766235,0.8219971656799316,-0.5689204335212708
1758447624281144600,6.52014453125,-0.3567376136779785,0.43572351336479187,-0.637333869934082
1758447624291116800,6.53011669921875,-0.4749681055545807,0.015192002058029175,-0.8250941634178162
1758447624301089800,6.54008984375,-0.8550376892089844,-0.56171715259552,-0.813896119594574
1758447624311062500,6.5500625,-0.8111583590507507,-0.6770445108413696,-0.7757766842842102
1758447624321035500,6.560035400390625,-0.8938407301902771,-0.1986108273267746,-1.041038155555725
1758447624331007700,6.5700078125,-1.124882459640503,-0.008830242790281773,-1.1159470081329346
1758447624340980700,6.579980712890625,-1.4503597021102905,0.36911892890930176,-0.9296413660049438
1758447624350953500,6.589953369140625,-1.5784707069396973,0.6599637866020203,-0.9221184253692627
1758447624360926700,6.5999267578125,-1.5587763786315918,0.8213196992874146,-1.0017858743667603
1758447624370898700,6.609898681640625,-1.5493983030319214,0.9123417139053345,-0.9496419429779053
1758447624380871700,6.61987158203125,-1.4950273036956787,0.7165732979774475,-0.8020064234733582
1758447624390844700,6.6298447265625,-1.3319180011749268,0.15508198738098145,-0.49089860916137695
1758447624400816600,6.639816650390625,-1.1841628551483154,-0.5567452907562256,-0.1478365957736969
1758447624410789600,6.64978955078125,-1.0216377973556519,-1.094911813735962,0.26121190190315247
1758447624420763000,6.659762939453125,-0.880848228931427,-1.3068418502807617,0.5436547994613647
1758447624430735600,6.669735595703125,-0.6147838234901428,-1.2687318325042725,0.5121716856956482
1758447624440707600,6.67970751953125,-0.2588731050491333,-0.7343823909759521,0.2209686040878296
1758447624450680800,6.689680908203125,-0.0902918130159378,-0.23272299766540527,-0.09798169136047363
1758447624460653800,6.69965380859375,-0.008128500543534756,0.07548251003026962,-0.2468140423297882
1758447624470626600,6.70962646484375,0.006446181330829859,0.32728731632232666,-0.2892152965068817
1758447624480598800,6.719598876953125,-0.19672903418540955,0.396788090467453,-0.2867441475391388
1758447624490571800,6.72957177734375,-0.36302614212036133,0.3069293200969696,-0.06172221899032593
1758447624500544800,6.739544677734375,-0.2496468424797058,0.36263811588287354,0.046123817563056946
1758447624510516700,6.749516845703125,-0.03905579075217247,0.6058206558227539,-0.1225711926817894
1758447624520489700,6.75948974609375,0.3659558892250061,0.761603057384491,-0.3433688282966614
1758447624530462700,6.769462646484375,1.248315453529358,1.0155210494995117,-0.5798934698104858
1758447624540435700,6.779435791015625,1.7660562992095947,0.8301677703857422,-0.6447547674179077
1758447624550407700,6.78940771484375,1.8735826015472412,0.5722435116767883,-0.4718681871891022
1758447624560380700,6.799380615234375,2.4102702140808105,-0.5216517448425293,-0.621418297290802
1758447624570353700,6.809353759765625,2.8384463787078857,-1.7029756307601929,-0.8210456371307373
1758447624580327000,6.819326904296875,3.1383440494537354,-2.706583023071289,-0.845801830291748
1758447624590298600,6.829298583984375,3.4113426208496094,-3.14424204826355,-0.790141761302948
1758447624600271600,6.839271728515625,3.933929204940796,-3.562497138977051,-0.8571663498878479
1758447624610244900,6.849244873046875,4.514678001403809,-2.890916109085083,-1.0543042421340942
1758447624620216600,6.859216552734375,5.130065441131592,-1.3366245031356812,-1.1521055698394775
1758447624630189600,6.869189453125,5.702396392822266,-0.09355178475379944,-0.9421970844268799
1758447624640162800,6.879162841796875,5.989416122436523,0.27848729491233826,-0.621572732925415
1758447624650135800,6.8891357421875,5.946787357330322,-0.007396929897367954,-0.40451180934906006
1758447624660107500,6.899107421875,5.9504714012146,-0.09432730078697205,-0.1239142194390297
1758447624670080800,6.909080810546875,5.994912147521973,0.31770312786102295,0.3777962923049927
1758447624680053800,6.9190537109375,5.680324554443359,0.9640586972236633,0.8427884578704834
1758447624690026800,6.92902685546875,5.093826770782471,1.4236782789230347,1.1511974334716797
1758447624699998700,6.938998779296875,4.676128387451172,1.7677652835845947,1.3010015487670898
1758447624709971700,6.9489716796875,4.515933036804199,1.9691777229309082,1.3110276460647583
1758447624719944700,6.95894482421875,4.512959003448486,2.0738108158111572,1.2934669256210327
1758447624729916700,6.968916748046875,4.557310581207275,2.1089491844177246,1.2395638227462769
1758447624739889700,6.9788896484375,4.562588691711426,1.9159808158874512,1.0476760864257812
1758447624749862700,6.988862548828125,4.564908504486084,1.1809883117675781,0.7425305843353271
1758447624759835600,6.998835693359375,4.564452648162842,0.33078616857528687,0.6535812616348267
1758447624769807600,7.0088076171875,4.536568641662598,-0.324533611536026,0.7394695281982422
1758447624779780600,7.018780517578125,4.444546699523926,-0.8098971247673035,0.8548036217689514
1758447624789753600,7.028753662109375,4.310945510864258,-1.097517490386963,0.9150049090385437
1758447624799726800,7.038726806640625,4.211796760559082,-1.2689623832702637,0.9017143845558167
1758447624809698600,7.048698486328125,4.339015483856201,-1.8528043031692505,0.870093584060669
1758447624819671600,7.058671630859375,6.060415267944336,-2.4990854263305664,0.574055016040802
1758447624829644800,7.068644775390625,8.696990966796875,-2.5861549377441406,-0.1979583501815796
1758447624839616800,7.07861669921875,8.872551918029785,-3.58428955078125,-1.3237193822860718
1758447624849589500,7.088589599609375,6.656949043273926,-5.2593512535095215,-2.5129404067993164
1758447624859562800,7.098562744140625,3.0370192527770996,-5.997772216796875,-3.2563400268554688
1758447624869535700,7.10853564453125,-0.3355415165424347,-5.767899990081787,-3.5459342002868652
1758447624879507700,7.1185078125,-1.66463041305542,-5.962834358215332,-2.711716890335083
1758447624889480700,7.128480712890625,-1.6076339483261108,-6.337296485900879,-1.083838701248169
1758447624899453700,7.13845361328125,-1.0987260341644287,-5.825325012207031,0.41505497694015503
1758447624909425700,7.14842578125,-0.7110962271690369,-4.7512030601501465,1.4758431911468506
1758447624919399000,7.15839892578125,-0.5903649926185608,-3.2945075035095215,2.0287046432495117
1758447624929371600,7.16837158203125,-0.6088486909866333,-1.3400543928146362,2.018394708633423
1758447624939344600,7.1783447265625,-0.5573804378509521,0.9766344428062439,1.4428716897964478
1758447624949316900,7.18831689453125,-0.3933643400669098,2.9250240325927734,0.6600756645202637
1758447624959289900,7.198289794921875,-0.21365796029567719,3.991912603378296,0.11151348054409027
1758447624969262600,7.2082626953125,-0.09002496302127838,4.245569705963135,-0.1822608858346939
1758447624979235600,7.218235595703125,-0.03972291201353073,3.9375195503234863,-0.3012847304344177
1758447624989207800,7.228207763671875,-0.029986128211021423,3.3288731575012207,-0.3054981231689453
1758447624999180800,7.238180908203125,-0.03080984391272068,2.6698687076568604,-0.2755279839038849
1758447625009153500,7.248153564453125,-0.037589188665151596,2.063565492630005,-0.24849823117256165
1758447625019125800,7.258125732421875,-0.00646562222391367,1.5676226615905762,-0.22878657281398773
1758447625029098800,7.2680986328125,0.006908239796757698,1.226421594619751,-0.22065381705760956
1758447625039071700,7.27807177734375,0.005254416726529598,1.0435125827789307,-0.19909340143203735
1758447625049044700,7.288044677734375,0.012287292629480362,0.9540207386016846,-0.15605857968330383
1758447625059016700,7.2980166015625,0.011255051009356976,0.8507230877876282,-0.09686795622110367
1758447625068989400,7.307989501953125,0.008405202999711037,0.7264461517333984,-0.06731485575437546
1758447625078962700,7.317962646484375,0.028141623362898827,0.6073765158653259,-0.04240205138921738
1758447625088934700,7.3279345703125,0.07212851941585541,0.4685400426387787,0.0371316559612751
1758447625098907600,7.33790771484375,0.10596291720867157,0.2961118221282959,0.12209980934858322
1758447625108880600,7.347880615234375,0.0881173387169838,0.13681483268737793,0.21711154282093048
1758447625118853600,7.357853515625,0.050097789615392685,-0.07659117877483368,0.31095173954963684
1758447625128825600,7.36782568359375,0.019294602796435356,-0.317024827003479,0.36560115218162537
1758447625138798600,7.377798583984375,0.007813181728124619,-0.5192021727561951,0.3715847432613373
1758447625148771600,7.387771484375,0.01546311192214489,-0.6519556641578674,0.34379732608795166
1758447625158743600,7.39774365234375,0.015803730115294456,-0.7160483598709106,0.30358758568763733
1758447625168716500,7.407716552734375,0.0074017234146595,-0.7323210835456848,0.2738587260246277
1758447625178689500,7.417689453125,-0.0025305356830358505,-0.7059374451637268,0.268797904253006
1758447625188662500,7.42766259765625,-0.01050350721925497,-0.634717583656311,0.2779011130332947
1758447625198634800,7.437634765625,-0.016509734094142914,-0.5106925368309021,0.27881404757499695
1758447625208607700,7.447607666015625,-0.015123825520277023,-0.34472063183784485,0.24738822877407074
1758447625218580500,7.45758056640625,-0.012496616691350937,-0.16528190672397614,0.18122944235801697
1758447625228553500,7.467553466796875,-0.006947654765099287,0.003897269954904914,0.09167159348726273
1758447625238525700,7.477525634765625,0.004453870467841625,0.13567474484443665,0.0032061797101050615
1758447625248498700,7.487498779296875,0.013916348107159138,0.19944919645786285,-0.061594389379024506
1758447625258471400,7.497471435546875,0.021077854558825493,0.21304915845394135,-0.09098237007856369
1758447625268443600,7.507443603515625,0.02160516008734703,0.2031152993440628,-0.09814387559890747
1758447625278416600,7.517416748046875,0.022297848016023636,0.20765146613121033,-0.09383834153413773
1758447625288389600,7.5273896484375,0.016532637178897858,0.2286965548992157,-0.08273962140083313
1758447625298362400,7.5373623046875,0.011775699444115162,0.25902169942855835,-0.07165181636810303
1758447625308334600,7.54733447265625,0.0035483958199620247,0.2842690050601959,-0.061281200498342514
1758447625318307600,7.5573076171875,-0.0027337349019944668,0.30571410059928894,-0.05062083154916763
1758447625328280600,7.567280517578125,-0.008435030467808247,0.31276190280914307,-0.04404468834400177
1758447625338252500,7.57725244140625,-0.012198342941701412,0.3003566265106201,-0.03831276670098305
1758447625348225500,7.5872255859375,-0.011446532793343067,0.26863783597946167,-0.03159734234213829
1758447625358198500,7.597198486328125,-0.006028331350535154,0.2212061583995819,-0.022521020844578743
1758447625368171800,7.607171875,-0.0022975089959800243,0.17585065960884094,-0.0057076867669820786
1758447625378143500,7.6171435546875,0.005113269202411175,0.13378629088401794,0.011501127853989601
1758447625388116500,7.627116455078125,0.001832521171309054,0.08946410566568375,0.022594524547457695
1758447625398089700,7.63708984375,0.00177925790194422,0.04496827349066734,0.02226322703063488
1758447625408061400,7.6470615234375,0.00869149249047041,0.02064082957804203,0.01353551633656025
1758447625418034400,7.657034423828125,0.019032014533877373,0.014111557975411415,0.008184692822396755
1758447625428007700,7.667007568359375,0.014082795940339565,-0.003418966196477413,0.0043928842060267925
1758447625437980700,7.676980712890625,0.022362563759088516,-0.01589188165962696,0.00908590666949749
1758447625447952400,7.686952392578125,0.043892890214920044,-0.02893897332251072,0.009134110063314438
1758447625457925600,7.696925537109375,0.062003981322050095,-0.05710003897547722,-0.013686250895261765
1758447625467898600,7.706898681640625,0.02479083463549614,-0.11108231544494629,-0.05147064849734306
1758447625477871600,7.71687158203125,-0.0038812910206615925,-0.16479986906051636,-0.08080802857875824
1758447625487843600,7.726843505859375,0.044666536152362823,-0.16202378273010254,-0.06485329568386078
1758447625497816600,7.736816650390625,0.13101820647716522,-0.12523354589939117,-0.021502096205949783
1758447625507789600,7.74678955078125,0.17473718523979187,-0.08978421241044998,0.01667698100209236
1758447625517761800,7.75676171875,0.1845346987247467,-0.05103575438261032,0.05917038023471832
1758447625527734500,7.766734619140625,0.179043248295784,-0.05818554013967514,0.0939672440290451
1758447625537707500,7.77670751953125,0.1303742527961731,-0.12913188338279724,0.10373544692993164
1758447625547679700,7.7866796875,0.05661054700613022,-0.2275567203760147,0.09265802800655365
1758447625557652700,7.79665283203125,0.011409514583647251,-0.2732270061969757,0.08780335634946823
1758447625567625500,7.80662548828125,-0.015676964074373245,-0.22500409185886383,0.10205286741256714
1758447625577598500,7.816598388671875,-0.05916931480169296,-0.11512605845928192,0.1361415982246399
1758447625587570700,7.82657080078125,-0.1034718006849289,0.007923170924186707,0.1929694563150406
1758447625597543400,7.83654345703125,-0.12637631595134735,0.10292211920022964,0.2586251497268677
1758447625607516400,7.846516357421875,-0.13943246006965637,0.16376736760139465,0.30498066544532776
1758447625617489700,7.85648974609375,-0.1401195526123047,0.1990816742181778,0.3171995282173157
1758447625627461600,7.866461669921875,-0.12567190825939178,0.2236376255750656,0.29121798276901245
1758447625637434400,7.876434326171875,-0.09846212714910507,0.23049019277095795,0.22391511499881744
1758447625647407600,7.88640771484375,-0.0625334158539772,0.21843060851097107,0.1231730654835701
1758447625657379600,7.896379638671875,-0.019637616351246834,0.18454694747924805,0.003084739437326789
1758447625667352600,7.9063525390625,0.019569439813494682,0.13497672975063324,-0.1138157844543457
1758447625677325600,7.91632568359375,0.04253228008747101,0.088400699198246,-0.20672281086444855
1758447625687298600,7.926298583984375,0.054915979504585266,0.06346365809440613,-0.2641754448413849
1758447625697270500,7.9362705078125,0.06997296214103699,0.056772470474243164,-0.2907048165798187
1758447625707243800,7.946243896484375,0.09013175964355469,0.06568367034196854,-0.2878544330596924
1758447625717216500,7.956216552734375,0.1018294245004654,0.08083519339561462,-0.2709486782550812
1758447625727188500,7.9661884765625,0.09622932970523834,0.07522205263376236,-0.2489866465330124
1758447625737161700,7.97616162109375,0.07073728740215302,0.0684211328625679,-0.2162606567144394
1758447625747134700,7.986134765625,0.04009442403912544,0.06852899491786957,-0.16583983600139618
1758447625757107500,7.996107421875,0.010812168009579182,0.06775534152984619,-0.10599647462368011
1758447625767079700,8.00607958984375,-0.01848100684583187,0.06488338857889175,-0.04921441897749901
1758447625777052700,8.016052734375,-0.04710812494158745,0.0549338236451149,0.008386027999222279
1758447625787025700,8.026025634765626,-0.07298659533262253,0.0456247441470623,0.06085163354873657
1758447625796998400,8.035998291015625,-0.09077411144971848,0.03603550046682358,0.11393828690052032
1758447625806970600,8.045970703125,-0.09875427186489105,0.020262926816940308,0.15706151723861694
1758447625816943600,8.055943603515624,-0.10550592094659805,-0.01393019687384367,0.1902623474597931
1758447625826916600,8.06591650390625,-0.09700510650873184,-0.06760753691196442,0.22084982693195343
1758447625836889600,8.0758896484375,-0.08065462857484818,-0.14559634029865265,0.24834589660167694
1758447625846861600,8.085861572265625,-0.061279069632291794,-0.2482854425907135,0.26309287548065186
1758447625856834600,8.09583447265625,-0.035290878266096115,-0.3499167263507843,0.25446823239326477
1758447625866807800,8.105807861328126,-0.008536762557923794,-0.420175164937973,0.21286140382289886
1758447625876780500,8.115780517578125,0.014666028320789337,-0.43809637427330017,0.1442490518093109
1758447625886752500,8.12575244140625,0.037154559046030045,-0.402167409658432,0.06359761953353882
1758447625896725800,8.135725830078124,0.04675818234682083,-0.32855552434921265,-0.007641940843313932
1758447625906698800,8.14569873046875,0.05078115686774254,-0.2508961260318756,-0.05402461811900139
1758447625916670500,8.15567041015625,0.04933585599064827,-0.19145119190216064,-0.07222519814968109
1758447625926643700,8.165643798828125,0.04703328758478165,-0.14296860992908478,-0.06754469126462936
1758447625936616700,8.17561669921875,0.04310326278209686,-0.08385735005140305,-0.06535983085632324
1758447625946589700,8.185589599609376,0.029330192133784294,-0.006097307428717613,-0.07905513793230057
1758447625956561700,8.195561767578125,0.014693192206323147,0.07683379203081131,-0.10250533372163773
1758447625966534700,8.20553466796875,0.0017720673931762576,0.1476810723543167,-0.11864489316940308
1758447625976507600,8.215507568359374,-0.0076057217083871365,0.19565844535827637,-0.12429079413414001
1758447625986480600,8.225480712890626,-0.011981561779975891,0.21702605485916138,-0.11714126914739609
1758447625996452600,8.23545263671875,-0.017165936529636383,0.21696293354034424,-0.09532838314771652
1758447626006425600,8.245425537109375,-0.019172629341483116,0.2071784883737564,-0.06950344145298004
1758447626016398600,8.255398681640624,-0.019349996000528336,0.19662490487098694,-0.039917588233947754
1758447626026371600,8.26537158203125,-0.016762468963861465,0.18094421923160553,-0.015810122713446617
1758447626036343600,8.275343505859375,-0.016830645501613617,0.15538160502910614,0.006789196282625198
1758447626046316500,8.285316650390625,-0.018508702516555786,0.1082196831703186,0.03201226145029068
1758447626056290000,8.2952900390625,-0.012399944476783276,0.038960449397563934,0.05868435278534889
1758447626066263000,8.305262939453126,-0.007947671227157116,-0.03798333555459976,0.07802529633045197
1758447626076235000,8.315235107421875,-0.006902647204697132,-0.09605356305837631,0.0864374190568924
1758447626086208000,8.3252080078125,-0.005627791862934828,-0.12556937336921692,0.07970041781663895
1758447626096181200,8.33518115234375,-0.0022833943367004395,-0.12490864843130112,0.0692424550652504
1758447626106153000,8.345153076171876,0.00010998855577781796,-0.1075163409113884,0.06222822144627571
1758447626116126000,8.3551259765625,0.005590774118900299,-0.08947928249835968,0.061157628893852234
1758447626126099200,8.36509912109375,0.006976416800171137,-0.08039817214012146,0.05794186145067215
1758447626136072200,8.375072265625,0.006970557849854231,-0.07721755653619766,0.05475858598947525
1758447626146044000,8.3850439453125,0.005392634775489569,-0.0777139663696289,0.03759397938847542
1758447626156017200,8.39501708984375,0.005283178761601448,-0.07580395042896271,0.015110509470105171
1758447626165990100,8.404990234375,0.008446215651929379,-0.07432616502046585,-0.01019937451928854
1758447626175963100,8.414963134765625,0.011542140506207943,-0.07625189423561096,-0.021328458562493324
1758447626185935000,8.42493505859375,0.012312859296798706,-0.08105117827653885,-0.017140638083219528
1758447626195908000,8.434908203125,0.01059245690703392,-0.08408798277378082,-0.004315386060625315
1758447626205881000,8.444881103515625,0.0051593417301774025,-0.0830879658460617,0.0017920411191880703
1758447626215854000,8.45485400390625,0.005618470720946789,-0.07352694869041443,0.004600344225764275
1758447626225826000,8.464825927734376,0.009362342767417431,-0.06251930445432663,0.0034932682756334543
1758447626235799000,8.474799072265625,0.014031130820512772,-0.0578441247344017,0.003834951901808381
1758447626245772000,8.48477197265625,0.015920110046863556,-0.06617369502782822,0.004574511665850878
1758447626255745300,8.494745361328125,0.016506271436810493,-0.08476042747497559,0.008890430442988873
1758447626265717000,8.504717041015626,0.013420467264950275,-0.10298177599906921,0.00449781259521842
1758447626275690000,8.51468994140625,0.00884808599948883,-0.10758691281080246,-0.01022733747959137
1758447626285663200,8.524663330078125,0.0009363674325868487,-0.10323876887559891,-0.025316275656223297
1758447626295635000,8.534635009765625,-0.004473311826586723,-0.09872204810380936,-0.03989655151963234
1758447626305608000,8.54460791015625,-0.006917827297002077,-0.10150265693664551,-0.051057592034339905
1758447626315581200,8.554581298828126,-0.005037635564804077,-0.1029127985239029,-0.05654077231884003
1758447626325554200,8.56455419921875,-0.006682936567813158,-0.09887678176164627,-0.0554715134203434
1758447626335526000,8.57452587890625,-0.010808705352246761,-0.0893985852599144,-0.05067569389939308
1758447626345499100,8.5844990234375,-0.01203881949186325,-0.07406570762395859,-0.04033437371253967
1758447626355472100,8.59447216796875,-0.009959157556295395,-0.05884493887424469,-0.026080070063471794
1758447626365445000,8.604445068359375,-0.006453372072428465,-0.04657069593667984,-0.016750751063227654
1758447626375417000,8.6144169921875,-0.0008527441532351077,-0.045879341661930084,-0.013827664777636528
1758447626385390000,8.62439013671875,0.0006079996819607913,-0.05481664463877678,-0.011023090220987797
1758447626395363000,8.634363037109376,0.003430684097111225,-0.0700368732213974,-0.006185724399983883
1758447626405336000,8.644336181640625,0.004293814767152071,-0.0830935537815094,-0.0019331886433064938
1758447626415308000,8.65430810546875,0.0033222935162484646,-0.0893423929810524,0.004945223685353994
1758447626425281000,8.664281005859374,0.0038432078436017036,-0.08859670907258987,0.013627128675580025
1758447626435254000,8.67425390625,0.00007323692989302799,-0.08574606478214264,0.023860059678554535
1758447626445226000,8.68422607421875,-0.0026469158474355936,-0.07879334688186646,0.027639085426926613
1758447626455199000,8.694198974609375,-0.004013117402791977,-0.07234663516283035,0.028776254504919052
1758447626465172000,8.704171875,-0.0011403656098991632,-0.059781573712825775,0.02045094594359398
1758447626475145200,8.714145263671876,-0.0017931063193827868,-0.03863101452589035,0.010422014631330967
1758447626485117000,8.724116943359375,-0.004435494542121887,-0.013499829918146133,0.0009147958480753005
1758447626495090000,8.73408984375,-0.00555189186707139,0.008342884480953217,-0.0114590497687459
1758447626505063200,8.744063232421874,-0.00398728484287858,0.026125609874725342,-0.013748036697506905
1758447626515036200,8.7540361328125,-0.0025893915444612503,0.0297834612429142,-0.0115559883415699
1758447626525008000,8.7640078125,-0.0007033408619463444,0.0241324994713068,-0.010599914006888866
1758447626534981000,8.773981201171875,0.002906573936343193,0.016108395531773567,-0.01563541777431965
1758447626544954000,8.7839541015625,0.003284476464614272,0.012489693239331245,-0.018191520124673843
1758447626554927000,8.793927001953126,0.00487278588116169,0.012434831820428371,-0.021823273971676826
1758447626564899000,8.803899169921875,0.0054184673354029655,0.00842943787574768,-0.01769111305475235
1758447626574872000,8.8138720703125,0.0044048684649169445,-0.0001661812566453591,-0.008293616585433483
1758447626584845000,8.823844970703124,0.005238703917711973,-0.0075639099813997746,0.003938282374292612
1758447626594817300,8.8338173828125,0.00561074772849679,-0.01570865511894226,0.018797922879457474
1758447626604790000,8.8437900390625,0.005379319190979004,-0.01804398186504841,0.02889156900346279
1758447626614763000,8.853762939453125,0.004217115696519613,-0.021044565364718437,0.03261519968509674
1758447626624736000,8.863736083984374,0.00544350128620863,-0.030675355345010757,0.028535237535834312
1758447626634708200,8.873708251953126,0.002225070958957076,-0.04453497752547264,0.021879466250538826
1758447626644681000,8.883680908203125,0.0030131004750728607,-0.052261073142290115,0.016331568360328674
1758447626654654000,8.893654052734375,-0.0010298443958163261,-0.05103761702775955,0.011521367356181145
1758447626664626200,8.903626220703124,-0.002007757080718875,-0.04397917538881302,0.012027367949485779
1758447626674599200,8.91359912109375,-0.002499643014743924,-0.03808107227087021,0.010778078809380531
1758447626684572000,8.923572021484375,-0.0022746059112250805,-0.03614708408713341,0.010180998593568802
1758447626694545200,8.933545166015625,-0.003194994293153286,-0.03199894726276398,0.007168963085860014
1758447626704517000,8.94351708984375,-0.000618918624240905,-0.020116187632083893,-0.00019334549142513424
1758447626714489900,8.95348974609375,-0.0012221246724948287,0.00475507415831089,-0.003275688039138913
1758447626724463000,8.963463134765625,-0.0006703176186420023,0.04023583605885506,-0.005184642039239407
1758447626734436000,8.97343603515625,0.0010050770360976458,0.06280053406953812,-0.00743288267403841
1758447626744408000,8.983407958984374,0.0009118663729168475,0.06210944429039955,-0.009831058792769909
1758447626754381000,8.993381103515626,0.0003528688393998891,0.05023840442299843,-0.01489559281617403
1758447626764354000,9.00335400390625,-0.00227886694483459,0.03133848309516907,-0.013881194405257702
1758447626774326000,9.013325927734375,-0.005352421198040247,0.014930746518075466,-0.01218476053327322
1758447626784299000,9.023299072265624,-0.007702660746872425,0.0019401127938181162,-0.006593986880034208
1758447626794272000,9.03327197265625,-0.00777616398409009,-0.0019209380261600018,0.005013134330511093
1758447626804245000,9.043244873046875,-0.0051652006804943085,-0.0023875238839536905,0.0194352176040411
1758447626814217200,9.05321728515625,-0.003314836649224162,-0.014072409830987453,0.03081117570400238
1758447626824190200,9.063190185546874,-0.003911118488758802,-0.038124214857816696,0.03664696216583252
1758447626834163000,9.073162841796876,-0.0006559365428984165,-0.0635313019156456,0.030479878187179565
1758447626844136000,9.083135986328125,0.00013688647595699877,-0.07475146651268005,0.021091969683766365
1758447626854108200,9.093108154296875,-0.004229099955409765,-0.06864643841981888,0.011759987100958824
1758447626864081200,9.1030810546875,-0.0065194182097911835,-0.05193883180618286,0.011235077865421772
1758447626874054000,9.113053955078126,-0.005073055624961853,-0.03557237610220909,0.012110991403460503
1758447626884026000,9.123026123046875,-0.0023726101499050856,-0.027031350880861282,0.014278005808591843
1758447626893999000,9.1329990234375,0.00023462448734790087,-0.017061807215213776,0.010890464298427105
1758447626903972000,9.14297216796875,0.0024319987278431654,-0.004028297495096922,0.0073109096847474575
1758447626913944800,9.15294482421875,0.002496447181329131,0.009827863425016403,-0.0026937874499708414
1758447626923917000,9.1629169921875,-0.0011142665753141046,0.022474415600299835,-0.015399995259940624
1758447626933890000,9.17289013671875,-0.0013086773687973619,0.03425091505050659,-0.025141306221485138
1758447626943863000,9.182863037109374,-0.0036104475148022175,0.04698508605360985,-0.034147851169109344
1758447626953835000,9.1928349609375,-0.007318899035453796,0.058395933359861374,-0.03648264333605766
1758447626963808000,9.20280810546875,-0.009288573637604713,0.06838784366846085,-0.03693511337041855
1758447626973781000,9.212781005859375,-0.014540326781570911,0.07199136912822723,-0.028597822412848473
1758447626983754200,9.222754150390625,-0.01600639708340168,0.07349418848752975,-0.019825102761387825
1758447626993726000,9.232725830078126,-0.018788868561387062,0.07374266535043716,-0.008458998054265976
1758447627003699000,9.242698974609375,-0.021435251459479332,0.06672842800617218,0.002375007141381502
1758447627013672200,9.252672119140625,-0.021694377064704895,0.056594304740428925,0.011506986804306507
1758447627023644000,9.262643798828124,-0.01739177294075489,0.03930452838540077,0.02268480509519577
1758447627033617000,9.272616943359376,-0.01359570398926735,0.020430706441402435,0.026558373123407364
1758447627043590100,9.282590087890625,-0.005834985990077257,0.0037766287568956614,0.02244006097316742
1758447627053562000,9.29256201171875,0.0005944175645709038,-0.007961786352097988,0.015109710395336151
1758447627063534300,9.302534423828124,0.009844374842941761,-0.014701981097459793,0.00794261135160923
1758447627073507000,9.312507080078126,0.008433965034782887,-0.012540559284389019,0.008188687264919281
1758447627083480000,9.32247998046875,0.009701096452772617,-0.007501325570046902,0.008713862858712673
1758447627093452300,9.332452392578125,0.008828112855553627,-0.004875182639807463,0.010538394562900066
1758447627103425300,9.34242529296875,0.00535455159842968,-0.006628874223679304,0.008784969337284565
1758447627113398000,9.35239794921875,-0.0020269318483769894,-0.004369714763015509,0.006389189511537552
1758447627123371000,9.36237109375,-0.005797169171273708,-0.00484349112957716,0.005103948060423136
1758447627133343200,9.37234326171875,-0.009669405408203602,-0.0034232272300869226,0.006994792725890875
1758447627143316200,9.382316162109374,-0.012856409884989262,0.0016407734947279096,0.007986021228134632
1758447627153289000,9.3922890625,-0.014454839751124382,0.013639379292726517,0.007852330803871155
1758447627163261200,9.40226123046875,-0.01392913144081831,0.020541228353977203,0.00723527604714036
1758447627173234200,9.412234130859375,-0.010486995801329613,0.015060176141560078,0.002612028270959854
1758447627183207200,9.422207275390624,-0.006705573294311762,-0.0017904432024806738,-0.00833809096366167
1758447627193180200,9.43218017578125,-0.0035806200467050076,-0.016827981919050217,-0.022715166211128235
1758447627203152100,9.442152099609375,0.0010492854053154588,-0.017062606289982796,-0.035179026424884796
1758447627213125000,9.452125,0.0022447784431278706,-0.005079713650047779,-0.041121337562799454
1758447627223098400,9.462098388671874,0.002659965306520462,0.006828344892710447,-0.03969361633062363
1758447627233070000,9.472070068359375,0.002802178030833602,0.011324293911457062,-0.0321294404566288
1758447627243043000,9.48204296875,-0.002843723399564624,0.011128551326692104,-0.022070948034524918
1758447627253016300,9.492016357421875,-0.004290885291993618,0.006854976527392864,-0.014417555183172226
1758447627262989300,9.5019892578125,-0.00324799120426178,-0.0005174521938897669,-0.011958392336964607
1758447627272961000,9.5119609375,-0.004595017991960049,-0.006365487817674875,-0.004339887294918299
1758447627282934300,9.521934326171875,-0.004333761986345053,-0.012560532428324223,0.0076118470169603825
1758447627292907300,9.5319072265625,-0.002767557045444846,-0.024828117340803146,0.022191587835550308
1758447627302879000,9.54187890625,0.0011475561186671257,-0.03931198641657829,0.03560832887887955
1758447627312852200,9.551852294921876,0.0025457157753407955,-0.05596419796347618,0.03714204207062721
1758447627322825200,9.5618251953125,0.004186222795397043,-0.060927532613277435,0.03314011171460152
1758447627332798200,9.571798095703125,0.005300223361700773,-0.05086211487650871,0.023201992735266685
1758447627342770200,9.581770263671874,0.009885387495160103,-0.028367726132273674,0.018613897264003754
1758447627352743200,9.5917431640625,0.011142931878566742,-0.0033838124945759773,0.020193684846162796
1758447627362716200,9.601716064453125,0.01306067407131195,0.014260162599384785,0.024868065491318703
1758447627372688400,9.6116884765625,0.01213016640394926,0.023687751963734627,0.028479045256972313
1758447627382661000,9.6216611328125,0.011896073818206787,0.03140159696340561,0.02207467518746853
1758447627392634000,9.631634033203126,0.011560781858861446,0.03494466841220856,0.009762615896761417
1758447627402607000,9.641607177734375,0.007865113206207752,0.04486760497093201,-0.0014940333785489202
1758447627412579300,9.651579345703125,0.005257612559944391,0.061347246170043945,-0.004122573416680098
1758447627422552000,9.661552001953124,0.0024852619972079992,0.0694965198636055,0.0002306297537870705
1758447627432525000,9.671525146484376,-0.0024437166284769773,0.06696518510580063,0.00635057408362627
1758447627442497300,9.681497314453125,-0.00803449098020792,0.05372687801718712,0.007632619701325893
1758447627452470000,9.691469970703125,-0.008360194973647594,0.047735828906297684,0.0029579729307442904
1758447627462443000,9.701443115234374,-0.007017962168902159,0.04783889651298523,-0.005711681675165892
1758447627472416300,9.711416259765626,-0.007302387617528439,0.04771532490849495,-0.010855576954782009
1758447627482388200,9.72138818359375,-0.010439591482281685,0.044370658695697784,-0.0021137509029358625
1758447627492361000,9.73136083984375,-0.014725150540471077,0.03250201791524887,0.010776747949421406
1758447627502334200,9.741334228515624,-0.014819426462054253,0.010953049175441265,0.02159583941102028
1758447627512306200,9.75130615234375,-0.013257482089102268,-0.008729043416678905,0.020988639444112778
1758447627522279200,9.761279052734375,-0.011349060572683811,-0.014820224605500698,0.014694257639348507
1758447627532252200,9.771252197265625,-0.010067014954984188,-0.007509848102927208,0.003585413796827197
1758447627542224100,9.78122412109375,-0.00990189891308546,0.0008319715270772576,-0.0033105756156146526
1758447627552197000,9.791197021484376,-0.007476292084902525,0.002597114769741893,-0.005095958709716797
1758447627562170400,9.80117041015625,-0.007273359224200249,-0.0035981968976557255,-0.00498144282028079
1758447627572143000,9.81114306640625,-0.009527725167572498,-0.014084394089877605,-0.0032445292454212904
1758447627582115000,9.821114990234374,-0.014252172783017159,-0.01739576831459999,-0.004479703027755022
1758447627592088300,9.83108837890625,-0.016802415251731873,-0.003718305379152298,-0.004628574009984732
1758447627602061300,9.841061279296875,-0.020314326509833336,0.022883478552103043,-0.005739644635468721
1758447627612033000,9.851032958984375,-0.023794811218976974,0.058514177799224854,-0.005283977836370468
1758447627622006300,9.86100634765625,-0.01786182075738907,0.09101246297359467,-0.00276169809512794
1758447627631979300,9.870979248046876,-0.01266732532531023,0.10228855162858963,-0.0017741979099810123
1758447627641952300,9.8809521484375,-0.0052080778405070305,0.09564556926488876,-0.0011379687348380685
1758447627651924200,9.89092431640625,0.0028493159916251898,0.07760211825370789,-0.0001073253879440017
1758447627661897200,9.900897216796874,0.011306717060506344,0.061099838465452194,0.00000852211542223813
1758447627671870200,9.9108701171875,0.017078852280974388,0.04463591054081917,0.00014807176194153726
1758447627681842200,9.92084228515625,0.02220330573618412,0.031798411160707474,0.0043561323545873165
1758447627691815200,9.930815185546875,0.026994332671165466,0.01329663023352623,0.01840084418654442
1758447627701788200,9.9407880859375,0.025542378425598145,-0.017833326011896133,0.0338306687772274
1758447627711760400,9.950760498046876,0.022009162232279778,-0.057910703122615814,0.047139283269643784
1758447627721733000,9.960733154296875,0.017739316448569298,-0.08484964072704315,0.054361242800951004
1758447627731706000,9.9707060546875,0.012169847264885902,-0.08763983845710754,0.05518842115998268
1758447627741679000,9.98067919921875,0.008056594990193844,-0.061998654156923294,0.05444087088108063
1758447627751651300,9.9906513671875,0.009180448949337006,-0.038066159933805466,0.053459230810403824
1758447627761624000,10.0006240234375,0.01050164271146059,-0.03205913305282593,0.045285191386938095
1758447627771597000,10.01059716796875,0.008508799597620964,-0.035588353872299194,0.03441603109240532
1758447627781569300,10.0205693359375,0.008106661960482597,-0.03217577934265137,0.01835530437529087
1758447627791542300,10.030542236328126,0.005082376766949892,-0.008506402373313904,-0.007474960293620825
1758447627801515000,10.040514892578125,0.003088201628997922,0.02768142893910408,-0.02846679463982582
1758447627811487200,10.0504873046875,0.0005821670056320727,0.06428790837526321,-0.03367886692285538
1758447627821460200,10.060460205078124,-0.004540423396974802,0.08594314008951187,-0.02894243597984314
1758447627831433200,10.07043310546875,-0.006184658966958523,0.0897490605711937,-0.016949156299233437
1758447627841406200,10.08040625,-0.007984955795109272,0.07730331271886826,-0.006007292307913303
1758447627851378200,10.090378173828125,-0.008328770287334919,0.05553889274597168,0.0006506102508865297
1758447627861351200,10.10035107421875,-0.009351956658065319,0.03448953479528427,0.0021726067643612623
1758447627871324200,10.11032421875,-0.007537278346717358,0.023637685924768448,0.0043561323545873165
1758447627881296100,10.120296142578125,-0.004806206561625004,0.020474914461374283,0.006672017276287079
1758447627891269000,10.13026904296875,-0.0021398498211055994,0.01344550121575594,0.00947712454944849
1758447627901242400,10.140242431640624,0.0008048072922974825,-0.004312190227210522,0.010321347042918205
1758447627911214000,10.150214111328125,0.0002713761059567332,-0.024022512137889862,0.005311408545821905
1758447627921187000,10.16018701171875,-0.0014828480780124664,-0.03943609073758125,0.0024671524297446012
1758447627931160300,10.170160400390625,-0.00347542529925704,-0.04899896681308746,0.001520398654974997
1758447627941133300,10.18013330078125,-0.006012352649122477,-0.047812528908252716,0.00487305223941803
1758447627951105000,10.19010498046875,-0.004858138505369425,-0.038597192615270615,0.016438361257314682
1758447627961078300,10.200078369140625,-0.007268032990396023,-0.0246648658066988,0.030820496380329132
1758447627971051300,10.21005126953125,-0.005251487251371145,-0.025295503437519073,0.04968180134892464
1758447627981023000,10.22002294921875,-0.004818190820515156,-0.04445641487836838,0.058579158037900925
1758447627990996200,10.229996337890626,-0.003355050226673484,-0.07222519814968109,0.05866437777876854
1758447628000969200,10.23996923828125,-0.004476507660001516,-0.09020739048719406,0.0485486276447773
1758447628010941200,10.249941162109375,-0.0009576727170497179,-0.0969419926404953,0.03128708153963089
1758447628020914200,10.2599140625,0.0032807481475174427,-0.0806431770324707,0.01973988302052021
1758447628030887200,10.26988720703125,0.007160441018640995,-0.04925942420959473,0.011484349146485329
1758447628040860200,10.279860107421875,0.01085903961211443,-0.010134126991033554,0.008976982906460762
1758447628050833000,10.2898330078125,0.007932757958769798,0.020247748121619225,0.0033342777751386166
1758447628060806100,10.29980615234375,0.006447513122111559,0.040943972766399384,-0.006373477168381214
1758447628070779000,10.30977880859375,0.0018967032665386796,0.05708352476358414,-0.02371198683977127
1758447628080750800,10.319750732421875,0.002409361768513918,0.0764998346567154,-0.04412032291293144
1758447628090724000,10.32972412109375,0.0002615224220789969,0.09859075397253036,-0.054417967796325684
1758447628100697000,10.339697021484374,-0.00726403808221221,0.11861532926559448,-0.05354391783475876
1758447628110668800,10.349668701171876,-0.010763698257505894,0.12852787971496582,-0.043726708739995956
1758447628120642000,10.35964208984375,-0.014856976456940174,0.12772627174854279,-0.03002527728676796
1758447628130615000,10.369614990234375,-0.01830017752945423,0.11906886845827103,-0.016528377309441566
1758447628140588000,10.379588134765624,-0.020170781761407852,0.10751953721046448,-0.0046576024033129215
1758447628150560000,10.38956005859375,-0.017895909026265144,0.08162029087543488,0.007534615229815245
1758447628160533000,10.399532958984375,-0.014422082342207432,0.0559716559946537,0.022781478241086006
1758447628170506000,10.409506103515625,-0.009267001412808895,0.031132886186242104,0.03626745939254761
1758447628180478000,10.41947802734375,-0.004752943757921457,0.005173723213374615,0.04819149896502495
1758447628190451000,10.429450927734376,-0.0004010720585938543,-0.027600735425949097,0.0479574054479599
1758447628200424000,10.439423828125,0.0018287927377969027,-0.06135709956288338,0.042629219591617584
1758447628210396000,10.44939599609375,0.0013432984706014395,-0.08368691056966782,0.029562951996922493
1758447628220369000,10.459368896484374,0.002522812457755208,-0.08054517954587936,0.012408998794853687
1758447628230342000,10.469341796875,0.0031374699901789427,-0.05633837357163429,-0.001112935016863048
1758447628240314000,10.479314208984375,0.004831506870687008,-0.01912575773894787,-0.0064981128089129925
1758447628250286800,10.489286865234375,0.004904743749648333,0.012343218550086021,-0.0003281014505773783
1758447628260259800,10.499259765625,0.008188953623175621,0.03912476450204849,0.004573712591081858
1758447628270232800,10.50923291015625,0.011831092648208141,0.05451064556837082,-0.0038924762047827244
1758447628280205000,10.519205078125,0.01233309879899025,0.061764828860759735,-0.019538547843694687
1758447628290177800,10.529177734375,0.01113307848572731,0.061943262815475464,-0.025853434577584267
1758447628300150800,10.53915087890625,0.003891411004588008,0.05706408619880676,-0.0241391584277153
1758447628310123000,10.549123046875,-0.0027031085919588804,0.05050551891326904,-0.011915515176951885
1758447628320096000,10.559095947265625,-0.008843292482197285,0.04668228328227997,0.011924836784601212
1758447628330068700,10.56906884765625,-0.013519803062081337,0.03918468579649925,0.034879155457019806
1758447628340041000,10.579041015625,-0.014550712890923023,0.013195430859923363,0.051234956830739975
1758447628350014000,10.589013916015626,-0.011738414876163006,-0.027159715071320534,0.05404725670814514
1758447628359987000,10.598987060546875,-0.00866246409714222,-0.05651920288801193,0.043605268001556396
1758447628369959000,10.608958984375,-0.006939132697880268,-0.06467539817094803,0.028299281373620033
1758447628379932000,10.618931884765624,-0.0036216326989233494,-0.054973769932985306,0.006983607076108456
1758447628389905000,10.62890478515625,-0.0010777813149616122,-0.041365817189216614,-0.009888051077723503
1758447628399876900,10.638876953125,-0.0006849650526419282,-0.03821582719683647,-0.019469039514660835
1758447628409849900,10.648849853515625,-0.0006950850365683436,-0.04229845479130745,-0.02473970130085945
1758447628419822800,10.65882275390625,-0.005723665934056044,-0.04542127624154091,-0.027170101180672646
1758447628429796000,10.668796142578126,-0.010664628818631172,-0.027884095907211304,-0.021627796813845634
1758447628439767800,10.678767822265625,-0.013007677160203457,0.007592938374727964,-0.015370700508356094
1758447628449740800,10.68874072265625,-0.017720406875014305,0.04652941972017288,-0.01236505713313818
1758447628459714000,10.698714111328124,-0.01997211016714573,0.07178977131843567,-0.008015049621462822
1758447628469686000,10.70868603515625,-0.01918860897421837,0.07655443251132965,-0.004637362435460091
1758447628479658800,10.71865869140625,-0.018626147881150246,0.060200490057468414,-0.0012058793799951673
1758447628489632000,10.728632080078125,-0.012772786431014538,0.03159813955426216,-0.0011494202772155404
1758447628499604000,10.73860400390625,-0.007963384501636028,0.0033342777751386166,-0.00447011599317193
1758447628509577000,10.748576904296876,-0.0034139060880988836,-0.017829064279794693,-0.01179514080286026
1758447628519550000,10.758550048828125,-0.001597630325704813,-0.023552197962999344,-0.018561434000730515
1758447628529522000,10.76852197265625,-0.0002798982313834131,-0.019343070685863495,-0.023126091808080673
1758447628539495000,10.778494873046874,-0.00039521310827694833,-0.003698331769555807,-0.021863486617803574
1758447628549468200,10.78846826171875,-0.005208876915276051,0.017063671723008156,-0.009224390611052513
1758447628559441000,10.79844091796875,-0.008283495903015137,0.03175686299800873,0.002772616920992732
1758447628569412900,10.808412841796875,-0.006596649996936321,0.031093204393982887,0.016263391822576523
1758447628579386000,10.81838623046875,0.0006439523422159255,0.008699482306838036,0.02034761570394039
1758447628589359000,10.828359130859376,0.009149822406470776,-0.01649588532745838,0.021731659770011902
1758447628599330800,10.838330810546875,0.014736069366335869,-0.03867762163281441,0.02371145412325859
1758447628609304000,10.848303955078125,0.01571664586663246,-0.05457296222448349,0.02677781879901886
1758447628619277000,10.858277099609374,0.015211177058517933,-0.06972262263298035,0.034934014081954956
1758447628629248800,10.868248779296875,0.015933426097035408,-0.08178035169839859,0.0429764948785305
1758447628639222000,10.878221923828125,0.016803480684757233,-0.08132122457027435,0.052740175276994705
1758447628649195000,10.888195068359375,0.01932602748274803,-0.07548251003026962,0.05723532661795616
1758447628659166700,10.898166748046876,0.023741282522678375,-0.06575983762741089,0.06137068197131157
1758447628669140000,10.908139892578125,0.023141805082559586,-0.056299224495887756,0.058035872876644135
1758447628679113000,10.918113037109375,0.020649617537856102,-0.042883019894361496,0.0495355948805809
1758447628689085000,10.9280849609375,0.015480955131351948,-0.02273567207157612,0.03393799439072609
1758447628699058000,10.938057861328126,0.012952017597854137,0.00407410366460681,0.012807408347725868
1758447628709031000,10.948031005859375,0.00833755824714899,0.033299632370471954,-0.00015206649550236762
1758447628719004000,10.95800390625,0.0014354437589645386,0.054978031665086746,-0.006102900020778179
1758447628728976100,10.96797607421875,-0.0032290827948600054,0.07001131027936935,-0.002144909929484129
1758447628738948900,10.977948974609374,-0.009647301398217678,0.0785834938287735,0.0022029669489711523
1758447628748921900,10.987921875,-0.01534593291580677,0.07900241017341614,0.00046818371629342437
1758447628758894000,10.99789404296875,-0.021504227072000504,0.07517224550247192,-0.004295678809285164
1758447628768867000,11.0078671875,-0.02321557328104973,0.06807252764701843,-0.00708800321444869
1758447628778839800,11.01783984375,-0.024888837710022926,0.06886295229196548,-0.005961219780147076
1758447628788812000,11.02781201171875,-0.026003902778029442,0.0698390007019043,0.0013912353897467256
1758447628798785000,11.037784912109375,-0.0220914538949728,0.07108589261770248,0.010271280072629452
1758447628808758000,11.047758056640625,-0.016505207866430283,0.0624692365527153,0.01410756353288889
1758447628818730000,11.05772998046875,-0.01320874597877264,0.05004745349287987,0.01242364663630724
1758447628828703000,11.067702880859375,-0.00839801225811243,0.045227400958538055,0.0015251922886818647
1758447628838676000,11.077676025390625,-0.006091448478400707,0.04380500316619873,-0.008344482630491257
1758447628848648000,11.08764794921875,-0.003418167121708393,0.04747324436903,-0.011286210268735886
1758447628858621000,11.097620849609376,-0.0003022687742486596,0.05241074413061142,-0.006674148142337799
1758447628868594000,11.107593994140625,0.0033278861083090305,0.053766559809446335,0.005531651899218559
1758447628878567000,11.11756689453125,0.008215319365262985,0.04797738045454025,0.015608520247042179
1758447628888539000,11.127538818359374,0.012234562076628208,0.03849199786782265,0.022410234436392784
1758447628898512000,11.137511962890626,0.014724617823958397,0.03328045830130577,0.02238733135163784
1758447628908484900,11.14748486328125,0.011922972276806831,0.048779524862766266,0.013644971884787083
1758447628918457000,11.15745703125,0.00833755824714899,0.07455013692378998,0.008497880771756172
1758447628928429800,11.167429931640624,0.0002697782183531672,0.10781355202198029,0.00917379092425108
1758447628938402800,11.17740283203125,-0.005812349263578653,0.149602010846138,0.019352393224835396
1758447628948375000,11.187375,-0.008423578925430775,0.18846498429775238,0.04127180576324463
1758447628958348000,11.19734814453125,-0.0068901302292943,0.2169397622346878,0.0667089894413948
1758447628968320800,11.20732080078125,0.00036272252327762544,0.22170975804328918,0.09159942716360092
1758447628978293000,11.21729296875,0.011207913048565388,0.2025051712989807,0.10241212695837021
1758447628988266000,11.227265869140625,0.02232368104159832,0.18251734972000122,0.09902910888195038
1758447628998239000,11.237239013671875,0.04656297340989113,0.16761723160743713,0.08382885158061981
1758447629008211000,11.2472109375,0.019845344126224518,0.13464756309986115,0.05795171484351158
1758447629018184000,11.257183837890626,-0.043170105665922165,0.07088828831911087,0.02702549286186695
1758447629028157000,11.267156982421875,-0.07372269034385681,0.018909242004156113,-0.012563196010887623
1758447629038129000,11.27712890625,-0.10243423283100128,-0.024408137425780296,-0.03314117714762688
1758447629048102000,11.287101806640624,-0.12774784862995148,-0.04741305485367775,-0.013620470650494099
1758447629058074000,11.29707421875,-0.15094158053398132,-0.04704181104898453,-0.0007014766451902688
1758447629068046300,11.30704638671875,-0.1689610630273819,-0.04313415288925171,-0.006309827324002981
1758447629078019300,11.317019287109375,-0.15486973524093628,-0.020789965987205505,-0.029398901388049126
1758447629087992000,11.326991943359374,-0.07680130749940872,0.06285779178142548,-0.05029059946537018
1758447629097965300,11.33696533203125,0.010834005661308765,0.1983482390642166,-0.07387795299291611
1758447629107937300,11.346937255859375,0.0699993222951889,0.30013853311538696,-0.12337146699428558
1758447629117910300,11.35691015625,0.10710248351097107,0.32673150300979614,-0.1886490136384964
1758447629127883300,11.36688330078125,0.1166192889213562,0.2801658809185028,-0.26549187302589417
1758447629137855200,11.376855224609375,0.09965069591999054,0.19270047545433044,-0.32167017459869385
1758447629147828200,11.386828125,0.06431373953819275,0.10213222354650497,-0.3409820795059204
1758447629157801500,11.396801513671875,0.014311561360955238,0.03526584431529045,-0.31139010190963745
1758447629167773200,11.406773193359374,-0.038958583027124405,0.007281614933162928,-0.2586275637149811
1758447629177746200,11.41674609375,-0.07795552164316177,0.019460516050457954,-0.19160698354244232
1758447629187719400,11.426719482421875,-0.10580259561538696,0.05782867968082428,-0.13113191723823547
1758447629197691100,11.436691162109375,-0.11700518429279327,0.11494150012731552,-0.07884155213832855
1758447629207664000,11.4466640625,-0.12008725851774216,0.1723720282316208,-0.03423040732741356
1758447629217637400,11.456637451171876,-0.12307213246822357,0.20299385488033295,0.0023840616922825575
1758447629227609300,11.466609375,-0.12581145763397217,0.18629637360572815,0.036133501678705215
1758447629237582000,11.47658203125,-0.1284455955028534,0.11580543220043182,0.06193340942263603
1758447629247555300,11.486555419921874,-0.13004295527935028,0.029220469295978546,0.07512697577476501
1758447629257527300,11.49652734375,-0.12312006950378418,-0.04204332455992699,0.06437046825885773
1758447629267500300,11.506500244140625,-0.10315647721290588,-0.08090576529502869,0.02887905202805996
1758447629277473300,11.516473388671875,-0.07746922224760056,-0.08855250477790833,-0.02624225616455078
1758447629287445200,11.5264453125,-0.050703924149274826,-0.07988231629133224,-0.0911586731672287
1758447629297418200,11.536418212890625,-0.03298724442720413,-0.07127444446086884,-0.14964568614959717
1758447629307391500,11.5463916015625,-0.026324281468987465,-0.05500546097755432,-0.1954888105392456
1758447629317363200,11.55636328125,-0.03116484358906746,-0.019097793847322464,-0.22413669526576996
1758447629327336200,11.566336181640626,-0.043186087161302567,0.048347823321819305,-0.23743465542793274
1758447629337309400,11.576309326171875,-0.052914347499608994,0.15309926867485046,-0.24243341386318207
1758447629347281200,11.58628125,-0.058821238577365875,0.2824530005455017,-0.23919713497161865
1758447629357254100,11.596254150390624,-0.0622151717543602,0.4297926425933838,-0.22856420278549194
1758447629367227400,11.606227294921876,-0.06503039598464966,0.5942159295082092,-0.21527236700057983
1758447629377200400,11.616200439453126,-0.06001460179686546,0.766156792640686,-0.19966250658035278
1758447629387172000,11.626172119140625,-0.052437640726566315,0.931423008441925,-0.18881279230117798
1758447629397145300,11.636145263671875,-0.03681899979710579,1.0696011781692505,-0.1839306801557541
1758447629407118300,11.646118408203124,-0.012224442325532436,1.1657869815826416,-0.1888735145330429
1758447629417090300,11.65609033203125,0.018189389258623123,1.1901557445526123,-0.19828565418720245
1758447629427063300,11.666063232421875,0.058161307126283646,1.1414337158203125,-0.2009536176919937
1758447629437036300,11.676036376953125,0.09700564295053482,1.0270334482192993,-0.20273207128047943
1758447629447008300,11.68600830078125,0.13645264506340027,0.8745378851890564,-0.20568737387657166
1758447629456981500,11.6959814453125,0.1767771691083908,0.7035837173461914,-0.21562975645065308
1758447629466954200,11.705954345703125,0.20978757739067078,0.553278386592865,-0.23863734304904938
1758447629476926200,11.71592626953125,0.2362852394580841,0.4668593406677246,-0.2737945318222046
1758447629486899500,11.7258994140625,0.253811240196228,0.45186758041381836,-0.3278774619102478
1758447629496872200,11.7358720703125,0.27040326595306396,0.49961674213409424,-0.40097272396087646
1758447629506844200,11.74584423828125,0.28045323491096497,0.5956348776817322,-0.47732287645339966
1758447629516817400,11.7558173828125,0.3003190755844116,0.7050543427467346,-0.5465424656867981
1758447629526790400,11.765790283203126,0.32208776473999023,0.7713337540626526,-0.6030994653701782
1758447629536762000,11.77576220703125,0.3176163136959076,0.7349759936332703,-0.651016354560852
1758447629546735400,11.7857353515625,0.28655800223350525,0.6354185342788696,-0.673803985118866
1758447629556708400,11.795708251953124,0.2526106834411621,0.5304100513458252,-0.6769230961799622
1758447629566680300,11.805680419921876,0.20156215131282806,0.565385103225708,-0.6856220364570618
1758447629576653300,11.8156533203125,0.11264905333518982,0.7571619749069214,-0.693905234336853
1758447629586626300,11.825626220703125,0.02966175600886345,0.9948000907897949,-0.7616760730743408
1758447629596598300,11.835598388671874,-0.03377554193139076,1.1304397583007812,-0.8630066514015198
1758447629606571300,11.8455712890625,-0.09237866848707199,1.108075499534607,-0.9295380115509033
1758447629616544300,11.855544189453125,-0.1545560210943222,0.922379732131958,-0.9615244269371033
1758447629626516200,11.86551611328125,-0.19447040557861328,0.6411251425743103,-0.9867235422134399
1758447629636489500,11.875489501953124,-0.19727551937103271,0.45575207471847534,-0.9802677631378174
1758447629646462200,11.885462158203126,-0.199514701962471,0.42119622230529785,-0.9508401155471802
1758447629656434200,11.89543408203125,-0.22560542821884155,0.45528921484947205,-0.9577329158782959
1758447629666407400,11.905407470703125,-0.27781403064727783,0.5532261729240417,-0.9810126423835754
1758447629676380400,11.91538037109375,-0.3233961760997772,0.7361536622047424,-1.0454097986221313
1758447629686352100,11.92535205078125,-0.343584269285202,0.9193759560585022,-1.1576590538024902
1758447629696325400,11.935325439453125,-0.361786425113678,0.9388545751571655,-1.2085376977920532
1758447629706298400,11.94529833984375,-0.31971487402915955,0.7055813670158386,-1.1359024047851562
1758447629716270300,11.955270263671874,-0.22917912900447845,0.4297891855239868,-0.9611856937408447
1758447629726243300,11.965243408203126,-0.17527301609516144,0.374300092458725,-0.7620787024497986
1758447629736216300,11.97521630859375,-0.17422986030578613,0.48951029777526855,-0.6490048766136169
1758447629746188300,11.985188232421875,-0.22595857083797455,0.6777891516685486,-0.6546180248260498
1758447629756161300,11.995161376953124,-0.3597533702850342,0.847741425037384,-0.7526817321777344
1758447629766134300,12.00513427734375,-0.5048498511314392,0.989706814289093,-0.9026134610176086
1758447629776106200,12.015106201171875,-0.6109206080436707,0.9250596761703491,-1.0691912174224854
1758447629786079500,12.02507958984375,-0.672239363193512,0.8211334943771362,-1.1937308311462402
1758447629796052200,12.03505224609375,-0.6984603404998779,0.8124018311500549,-1.353052020072937
