time,seconds_elapsed,z,y,x
1758447617775166500,0.01416650390625,-0.3862685561180115,-0.5857412219047546,-0.20935650169849396
1758447617785138400,0.024138427734375,-0.42653805017471313,-0.5786951780319214,-0.14752183854579926
1758447617795111400,0.034111328125,-0.4414035379886627,-0.5056100487709045,-0.0453675203025341
1758447617805084400,0.04408447265625,-0.4185621738433838,-0.3721133768558502,0.0688694566488266
1758447617815057400,0.054057373046875,-0.34331509470939636,-0.2169158160686493,0.16472114622592926
1758447617825030400,0.064030517578125,-0.26056352257728577,-0.07560567557811737,0.22990843653678894
1758447617835002400,0.07400244140625,-0.191370889544487,0.009823204949498177,0.26249781250953674
1758447617844975400,0.083975341796875,-0.13425052165985107,0.046186916530132294,0.257226824760437
1758447617854948600,0.093948486328125,-0.08852165192365646,0.03931250050663948,0.21671003103256226
1758447617864921300,0.10392138671875,-0.055278535932302475,-0.0017826604889705777,0.14041249454021454
1758447617874893300,0.113893310546875,-0.021240143105387688,-0.06900110840797424,0.0401945486664772
1758447617884866600,0.123866455078125,0.010690859518945217,-0.13004103302955627,-0.06092033162713051
1758447617894839600,0.133839599609375,0.04606296494603157,-0.18196707963943481,-0.133504256606102
1758447617904812300,0.143812255859375,0.06793449819087982,-0.22933074831962585,-0.1495506316423416
1758447617914785300,0.153785400390625,0.0898539125919342,-0.25344380736351013,-0.11767604202032089
1758447617924757500,0.163757568359375,0.11812327802181244,-0.24095182120800018,-0.06321515887975693
1758447617934730500,0.17373046875,0.14305339753627777,-0.22769753634929657,-0.023967884480953217
1758447617944703200,0.183703125,0.15141019225120544,-0.23675815761089325,-0.023651011288166046
1758447617954676500,0.193676513671875,0.15440517663955688,-0.2437492311000824,-0.04023664444684982
1758447617964649500,0.2036494140625,0.14848041534423828,-0.23688845336437225,-0.051400717347860336
1758447617974621400,0.213621337890625,0.13861073553562164,-0.22470688819885254,-0.05953880399465561
1758447617984594400,0.223594482421875,0.13751879334449768,-0.179342582821846,-0.07565704733133316
1758447617994567400,0.2335673828125,0.14830565452575684,-0.12845809757709503,-0.10318561643362045
1758447618004540400,0.24354052734375,0.15455327928066254,-0.07903312146663666,-0.14683154225349426
1758447618014512600,0.2535126953125,0.16142211854457855,-0.026156054809689522,-0.17880651354789734
1758447618024485400,0.2634853515625,0.16788332164287567,0.031257472932338715,-0.17846982181072235
1758447618034458400,0.273458251953125,0.166775181889534,0.06877848505973816,-0.15838931500911713
1758447618044431400,0.283431396484375,0.16447147727012634,0.0782562866806984,-0.12903699278831482
1758447618054404600,0.293404541015625,0.170603945851326,0.0639367401599884,-0.10244292765855789
1758447618064376300,0.303376220703125,0.18094182014465332,0.028039243072271347,-0.06883902847766876
1758447618074349300,0.313349365234375,0.19508694112300873,-0.02103455923497677,-0.02549581229686737
1758447618084322600,0.323322509765625,0.2065744698047638,-0.07189972698688507,0.02127702161669731
1758447618094295600,0.333295654296875,0.21048638224601746,-0.12399062514305115,0.058240894228219986
1758447618104267300,0.343267333984375,0.20586025714874268,-0.1633387804031372,0.07737582921981812
1758447618114240500,0.353240478515625,0.18528707325458527,-0.17994704842567444,0.07068543881177902
1758447618124213500,0.363213623046875,0.14968416094779968,-0.18827058374881744,0.04306560009717941
1758447618134186500,0.3731865234375,0.10981504619121552,-0.19531197845935822,0.013884011656045914
1758447618144159500,0.383159423828125,0.0781828984618187,-0.1709362268447876,-0.014523442834615707
1758447618154131500,0.39313134765625,0.0661022737622261,-0.11586817353963852,-0.03770945593714714
1758447618164104400,0.4031044921875,0.07138672471046448,-0.07035426050424576,-0.05428402125835419
1758447618174077400,0.413077392578125,0.07995650917291641,-0.04192288964986801,-0.05826278403401375
1758447618184050400,0.423050537109375,0.07514627277851105,-0.035550881177186966,-0.052306849509477615
1758447618194023400,0.4330234375,0.06000806763768196,-0.035540759563446045,-0.04263371601700783
1758447618203995400,0.442995361328125,0.041285526007413864,-0.04773090407252312,-0.024622386321425438
1758447618213968600,0.45296875,0.03024698607623577,-0.05681547895073891,0.009119863621890545
1758447618223941600,0.462941650390625,0.020688362419605255,-0.06093126907944679,0.04529653117060661
1758447618233914400,0.472914306640625,-0.00028616120107471943,-0.05818847939372063,0.06031649559736252
1758447618243886600,0.482886474609375,-0.01672123186290264,-0.04811881110072136,0.043758753687143326
1758447618253859600,0.492859619140625,-0.02688225731253624,-0.03802383318543434,0.0002578822895884514
1758447618263832600,0.50283251953125,-0.029134342446923256,-0.009148210287094116,-0.03822234645485878
1758447618273805300,0.512805419921875,-0.01893523521721363,0.0285514984279871,-0.054446857422590256
1758447618283777500,0.522777587890625,-0.0023986606393009424,0.05967947468161583,-0.04493827745318413
1758447618293750500,0.53275048828125,0.019096245989203453,0.07553406804800034,-0.018615061417222023
1758447618303723500,0.5427236328125,0.041189562529325485,0.08491825312376022,0.00853639841079712
1758447618313696500,0.552696533203125,0.05037666857242584,0.07508213073015213,0.013497602194547653
1758447618323669500,0.56266943359375,0.03558316454291344,0.05125613138079643,0.003914183005690575
1758447618333641500,0.572641357421875,0.004292084835469723,0.02272488735616207,-0.0191597118973732
1758447618343614500,0.582614501953125,-0.03166304901242256,0.0021570371463894844,-0.04822860285639763
1758447618353587500,0.59258740234375,-0.05654309689998627,-0.005089956801384687,-0.07714653760194778
1758447618363560400,0.602560546875,-0.0662175640463829,-0.009339562617242336,-0.10371236503124237
1758447618373533400,0.612533447265625,-0.07461877167224884,-0.02907278761267662,-0.12692953646183014
1758447618383505700,0.622505615234375,-0.08373571187257767,-0.04639073833823204,-0.14070256054401398
1758447618393478400,0.632478515625,-0.08626065403223038,-0.05320869758725166,-0.1487213522195816
1758447618403451400,0.642451416015625,-0.08664566278457642,-0.045514654368162155,-0.14701734483242035
1758447618413424400,0.65242431640625,-0.08153612166643143,-0.04053161293268204,-0.1322554498910904
1758447618423396600,0.662396728515625,-0.06506755203008652,-0.048260074108839035,-0.10542242974042892
1758447618433369300,0.672369384765625,-0.045495711266994476,-0.045128460973501205,-0.07172039151191711
1758447618443342300,0.68234228515625,-0.030388247221708298,-0.039127595722675323,-0.04202089086174965
1758447618453315600,0.692315673828125,-0.014740846119821072,-0.04211273416876793,-0.03413580358028412
1758447618463288600,0.70228857421875,0.0015972033143043518,-0.04070620983839035,-0.045478787273168564
1758447618473260300,0.71226025390625,0.0128061817958951,-0.035735417157411575,-0.0665249451994896
1758447618483233500,0.722233642578125,0.014367593452334404,-0.042892664670944214,-0.09155839681625366
1758447618493206500,0.73220654296875,0.009123562835156918,-0.028758998960256577,-0.10770567506551743
1758447618503179500,0.742179443359375,0.009541146457195282,0.00165350001771003,-0.10000088065862656
1758447618513151500,0.7521513671875,0.006206070072948933,0.03410891070961952,-0.07403319329023361
1758447618523124500,0.76212451171875,0.0022035131696611643,0.04989674314856529,-0.022091515362262726
1758447618533097500,0.772097412109375,0.011300072073936462,0.05131514370441437,0.035373374819755554
1758447618543070500,0.782070556640625,0.02680937759578228,0.03687825798988342,0.07751090824604034
1758447618553043500,0.79204345703125,0.04361632466316223,-0.001539438497275114,0.09541693329811096
1758447618563015400,0.802015380859375,0.054348062723875046,-0.03770223632454872,0.10178375244140625
1758447618572988400,0.811988525390625,0.054048456251621246,-0.04739667475223541,0.09755944460630417
1758447618582961700,0.821961669921875,0.05176438391208649,-0.036682937294244766,0.08848199248313904
1758447618592934400,0.831934326171875,0.04011544957756996,-0.017013628035783768,0.08130397647619247
1758447618602906400,0.84190625,0.020404953509569168,-0.004302513785660267,0.07340073585510254
1758447618612879600,0.851879638671875,-0.0045882826671004295,-0.001993553014472127,0.059852175414562225
1758447618622852600,0.8618525390625,-0.030989855527877808,-0.00043692742474377155,0.04713321849703789
1758447618632825300,0.871825439453125,-0.054210491478443146,0.0008256770670413971,0.04016212746500969
1758447618642797600,0.881797607421875,-0.06942818313837051,-0.008208335377275944,0.03583335503935814
1758447618652770600,0.8917705078125,-0.08070293813943863,-0.014128276146948338,0.04172932729125023
1758447618662743600,0.90174365234375,-0.08807460218667984,-0.034292660653591156,0.04701465740799904
1758447618672716300,0.91171630859375,-0.0926419198513031,-0.057806774973869324,0.04954839125275612
1758447618682689500,0.921689453125,-0.09066525846719742,-0.08642484992742538,0.04378446564078331
1758447618692661500,0.93166162109375,-0.09336357563734055,-0.11733296513557434,0.024143120273947716
1758447618702634500,0.941634521484375,-0.10011954605579376,-0.12609361112117767,-0.004181826487183571
1758447618712607500,0.951607421875,-0.10692258924245834,-0.09187812358140945,-0.028682641685009003
1758447618722580500,0.96158056640625,-0.10737550258636475,-0.03754632920026779,-0.04153004288673401
1758447618732552400,0.971552490234375,-0.11605927348136902,0.00575720239430666,-0.050053756684064865
1758447618742525700,0.981525634765625,-0.12441430985927582,0.03000725992023945,-0.05844888836145401
1758447618752498400,0.99149853515625,-0.11971090734004974,0.0344611331820488,-0.061555732041597366
1758447618762471400,1.001471435546875,-0.11112309992313385,0.028584221377968788,-0.05813565105199814
1758447618772444400,1.0114443359375,-0.09859399497509003,0.0042399996891617775,-0.04713040590286255
1758447618782416600,1.021416748046875,-0.09172873198986053,-0.026585545390844345,-0.027324145659804344
1758447618792389400,1.031389404296875,-0.08613128960132599,-0.05356123670935631,-0.01886354759335518
1758447618802362400,1.0413623046875,-0.08075371384620667,-0.06171725317835808,-0.02294745296239853
1758447618812335600,1.051335693359375,-0.0820956826210022,-0.05445002019405365,-0.03553728014230728
1758447618822307600,1.0613076171875,-0.09002450108528137,-0.04292877018451691,-0.05915762856602669
1758447618832280300,1.0712802734375,-0.09806191921234131,-0.011802274733781815,-0.07524924725294113
1758447618842253600,1.081253662109375,-0.10913558304309845,0.015161624178290367,-0.07689788937568665
1758447618852226600,1.0912265625,-0.1199866309762001,0.025984710082411766,-0.06317568570375443
1758447618862199600,1.101199462890625,-0.121778205037117,0.038629282265901566,-0.034230027347803116
1758447618872171500,1.111171630859375,-0.1131783202290535,0.02764800377190113,-0.0030643846839666367
1758447618882144500,1.12114453125,-0.09984618425369263,0.0009439258137717843,0.020528793334960938
1758447618892117500,1.131117431640625,-0.08495271950960159,-0.010705805383622646,0.031229905784130096
1758447618902090500,1.141090576171875,-0.07060027122497559,-0.02336944080889225,0.020094359293580055
1758447618912062500,1.1510625,-0.059811271727085114,-0.029833465814590454,-0.002056215889751911
1758447618922035500,1.161035400390625,-0.05385122820734978,-0.02370542660355568,-0.025257764384150505
1758447618932008400,1.171008544921875,-0.057270728051662445,-0.01811571791768074,-0.037283267825841904
1758447618941981400,1.1809814453125,-0.06161996349692345,-0.011165326461195946,-0.03161245211958885
1758447618951954400,1.190954345703125,-0.062463123351335526,-0.0031526731327176094,-0.015223892405629158
1758447618961926400,1.200926513671875,-0.05704722926020622,0.0006990981055423617,0.007182440720498562
1758447618971899400,1.2108994140625,-0.04747289791703224,-0.0020665947813540697,0.029331950470805168
1758447618981872600,1.22087255859375,-0.03398508578538895,-0.01565217413008213,0.0359046533703804
1758447618991845400,1.230845458984375,-0.022905804216861725,-0.04381909966468811,0.02633644826710224
1758447619001817300,1.2408173828125,-0.018941719084978104,-0.04934249073266983,0.018830349668860435
1758447619011790600,1.25079052734375,-0.01681705005466938,-0.04011969640851021,0.015410318970680237
1758447619021763600,1.260763671875,-0.013864576816558838,-0.017069783061742783,0.020040428265929222
1758447619031736300,1.270736328125,-0.009870899841189384,-0.003708703676238656,0.01930006965994835
1758447619041709000,1.280708984375,0.0008020729292184114,-0.0166550874710083,0.0203102994710207
1758447619051680800,1.2906806640625,0.018334461376070976,-0.03284018114209175,0.02018885873258114
1758447619061653800,1.30065380859375,0.03620380163192749,-0.06590154767036438,0.021729331463575363
1758447619071627000,1.310626953125,0.047120630741119385,-0.10025578737258911,0.029164345934987068
1758447619081600000,1.32060009765625,0.0615680105984211,-0.12431984394788742,0.03217212110757828
1758447619091571700,1.33057177734375,0.06092166155576706,-0.12253712862730026,0.052308015525341034
1758447619101545000,1.340544921875,0.053824279457330704,-0.0996776595711708,0.07167893648147583
1758447619111518000,1.35051806640625,0.04448430612683296,-0.0744553953409195,0.08077149838209152
1758447619121491000,1.360490966796875,0.03115314431488514,-0.042706478387117386,0.07865837216377258
1758447619131463000,1.370462890625,0.03180508688092232,-0.010303265415132046,0.06730851531028748
1758447619141436000,1.380435791015625,0.04138518124818802,0.01921043172478676,0.05780215561389923
1758447619151409000,1.390408935546875,0.04844256117939949,0.025730116292834282,0.04863528907299042
1758447619161382000,1.4003818359375,0.05163329467177391,0.0057215909473598,0.03535183146595955
1758447619171355000,1.41035498046875,0.05922437086701393,-0.012362337671220303,0.019134514033794403
1758447619181326800,1.420326904296875,0.06891753524541855,-0.015022452920675278,0.0021653580479323864
1758447619191299800,1.4302998046875,0.06805546581745148,-0.02140764892101288,-0.005117588210850954
1758447619201273000,1.440273193359375,0.06525195389986038,-0.016861969605088234,-0.008408049121499062
1758447619211245800,1.450245849609375,0.059571970254182816,-0.008416286669671535,-0.009033625945448875
1758447619221217800,1.4602177734375,0.043211162090301514,0.0060091083869338036,-0.008665601722896099
1758447619231191000,1.47019091796875,0.030276190489530563,0.021566497161984444,-0.01429365947842598
1758447619241163800,1.480163818359375,0.029862426221370697,0.02693694271147251,-0.03455198556184769
1758447619251136800,1.49013671875,0.03350962698459625,0.014046446420252323,-0.055846087634563446
1758447619261109800,1.50010986328125,0.03617343679070473,-0.01852750964462757,-0.0670899972319603
1758447619271082000,1.51008203125,0.03674069046974182,-0.04559827595949173,-0.050319280475378036
1758447619281054700,1.5200546875,0.03567054495215416,-0.05255309119820595,-0.015043282881379128
1758447619291027700,1.53002783203125,0.02742060460150242,-0.052362941205501556,0.024972843006253242
1758447619301001000,1.5400009765625,0.018073026090860367,-0.04967664182186127,0.05406729131937027
1758447619310973000,1.549972900390625,0.015552876517176628,-0.04457668960094452,0.06680412590503693
1758447619320945700,1.559945556640625,0.01539456844329834,-0.03958882391452789,0.0557379424571991
1758447619330919000,1.5699189453125,0.024024009704589844,-0.02156987600028515,0.03958640247583389
1758447619340892000,1.579891845703125,0.038178469985723495,-0.0012349230237305164,0.024356581270694733
1758447619350864000,1.58986376953125,0.04234445467591286,0.01334721501916647,0.009183486923575401
1758447619360836900,1.5998369140625,0.04254280403256416,0.02457212656736374,-0.00035686884075403214
1758447619370809900,1.609809814453125,0.033878475427627563,0.03487776219844818,-0.0015584873035550117
1758447619380782800,1.619782958984375,0.022390633821487427,0.040075454860925674,0.0001238519325852394
1758447619390755800,1.629755859375,0.012490331195294857,0.028309347108006477,0.002921502571552992
1758447619400727800,1.639727783203125,0.009172121994197369,0.0017236537532880902,0.010776448994874954
1758447619410700800,1.64970068359375,0.0049081346951425076,-0.033837269991636276,0.022878918796777725
1758447619420673800,1.659673828125,-0.0032204552553594112,-0.057088643312454224,0.030201591551303864
1758447619430646800,1.669646728515625,-0.009115096181631088,-0.05687825381755829,0.03452017530798912
1758447619440618800,1.67961865234375,-0.016662107780575752,-0.04339269548654556,0.029694195836782455
1758447619450591700,1.689591796875,-0.02682100236415863,-0.024974539875984192,0.015002334490418434
1758447619460564700,1.699564697265625,-0.032080333679914474,-0.0026565599255263805,-0.008385746739804745
1758447619470538000,1.7095380859375,-0.024201635271310806,0.025485064834356308,-0.03247377276420593
1758447619480511000,1.719510986328125,-0.008472029119729996,0.05408105254173279,-0.03807942569255829
1758447619490482700,1.729482666015625,0.005922090262174606,0.0535430945456028,-0.03654731065034866
1758447619500456000,1.7394560546875,0.008351154625415802,0.03081093542277813,-0.03447148576378822
1758447619510429000,1.749428955078125,0.011994091793894768,-0.00004657893441617489,-0.029605625197291374
1758447619520402000,1.75940185546875,0.012200314551591873,-0.0204330887645483,-0.02184736728668213
1758447619530374000,1.769373779296875,0.007533391006290913,-0.0356069840490818,-0.00753314234316349
1758447619540347000,1.779346923828125,-0.0013367722276598215,-0.053738195449113846,-0.004004460293799639
1758447619550319900,1.78931982421875,-0.01314123347401619,-0.06660045683383942,0.00454828143119812
1758447619560292900,1.79929296875,-0.014424046501517296,-0.07120613753795624,0.012581421062350273
1758447619570264800,1.809264892578125,-0.008180265314877033,-0.05454673618078232,0.017159927636384964
1758447619580237800,1.81923779296875,-0.0030273734591901302,-0.043557778000831604,0.015060711652040482
1758447619590210800,1.8292109375,0.006646026391535997,-0.048911530524492264,-0.008255530148744583
1758447619600184000,1.83918408203125,0.00979932677000761,-0.031209532171487808,-0.03533860296010971
1758447619610156800,1.84915673828125,0.010391879826784134,-0.0004183308919891715,-0.06424029171466827
1758447619620128800,1.859128662109375,0.007046946324408054,0.028267499059438705,-0.08223499357700348
1758447619630102000,1.86910205078125,0.006374497897922993,0.04942285269498825,-0.08166853338479996
1758447619640074800,1.87907470703125,0.012814320623874664,0.052679166197776794,-0.0716613382101059
1758447619650047700,1.8890478515625,0.021590769290924072,0.0405399464070797,-0.043171368539333344
1758447619660020000,1.89902001953125,0.02921326830983162,0.014515802264213562,-0.005340102128684521
1758447619669993000,1.908992919921875,0.03145964443683624,-0.012583991512656212,0.031073564663529396
1758447619679965700,1.918965576171875,0.02395707555115223,-0.04019725322723389,0.05551733449101448
1758447619689938700,1.928938720703125,0.015393148176372051,-0.043909702450037,0.07070986926555634
1758447619699911000,1.938910888671875,0.014449291862547398,-0.024698665365576744,0.06724633276462555
1758447619709884000,1.9488837890625,0.016043726354837418,-0.0008223616750910878,0.05128281190991402
1758447619719856600,1.958856689453125,0.024121541529893875,0.01944059506058693,0.0328681506216526
1758447619729830000,1.968829833984375,0.026868324726819992,0.03384243696928024,0.011386560276150703
1758447619739803000,1.978802978515625,0.02632027678191662,0.042224664241075516,-0.0062029664404690266
1758447619749774800,1.98877490234375,0.02096918784081936,0.04904981330037117,-0.014158894307911396
1758447619759747800,1.998747802734375,0.019817456603050232,0.043276190757751465,-0.00797934178262949
1758447619769720800,2.008720947265625,0.00919410865753889,0.0254918672144413,0.003466125577688217
1758447619779693800,2.01869384765625,0.002260388806462288,0.013578719459474087,0.019633345305919647
1758447619789666000,2.028666015625,-0.003770339535549283,0.008658262901008129,0.0343792699277401
1758447619799638800,2.038638671875,-0.008675908669829369,0.01868687942624092,0.03843965753912926
1758447619809611800,2.04861181640625,-0.010847982950508595,0.018389670178294182,0.0234103724360466
1758447619819584800,2.058584716796875,-0.011337148025631905,0.01175658032298088,0.0029978882521390915
1758447619829557000,2.068556884765625,-0.005858493037521839,0.007717098109424114,-0.008778609335422516
1758447619839529700,2.07852978515625,-0.0008908985182642937,-0.0009104788186959922,-0.0090425293892622
1758447619849502700,2.088502685546875,0.001436704071238637,0.0030983774922788143,0.012521885335445404
1758447619859476000,2.09847607421875,0.012884361669421196,0.010875262320041656,0.040694765746593475
1758447619869449000,2.108448974609375,0.019929755479097366,0.013295808807015419,0.06430475413799286
1758447619879420700,2.118420654296875,0.033693887293338776,0.012259148061275482,0.07071731984615326
1758447619889394000,2.128393798828125,0.0404234305024147,0.014816315844655037,0.05499880388379097
1758447619899367000,2.138366943359375,0.042976513504981995,0.020109962671995163,0.026609694585204124
1758447619909340000,2.14833984375,0.040872883051633835,0.02460697665810585,-0.007644682191312313
1758447619919312000,2.158311767578125,0.03447877988219261,0.035080086439847946,-0.02865682914853096
1758447619929284900,2.168284912109375,0.030605746433138847,0.0413808599114418,-0.03141053766012192
1758447619939257900,2.1782578125,0.021314892917871475,0.0367501936852932,-0.020447030663490295
1758447619949230800,2.18823095703125,0.02351759374141693,0.021155521273612976,-0.009153895080089569
1758447619959202800,2.198202880859375,0.028282729908823967,0.0005494618089869618,0.0012662815861403942
1758447619969175800,2.20817578125,0.02703610435128212,0.0005420049419626594,0.017127802595496178
1758447619979148800,2.218148681640625,0.023008132353425026,0.0035455101169645786,0.028232615441083908
1758447619989121800,2.228121826171875,0.019273582845926285,0.00516151636838913,0.03132454678416252
1758447619999095000,2.238094970703125,0.023066038265824318,0.007690012454986572,0.02843071147799492
1758447620009066800,2.248066650390625,0.028823526576161385,0.006268683820962906,0.01928887888789177
1758447620019039700,2.258039794921875,0.03063373826444149,0.004488618113100529,0.0084146186709404
1758447620029013000,2.268012939453125,0.03537416458129883,0.0033921946305781603,0.001328479964286089
1758447620038985700,2.27798583984375,0.03117155097424984,-0.00022320379503071308,-0.0028468884993344545
1758447620048958000,2.2879580078125,0.03215079382061958,-0.002740956377238035,-0.00021435366943478584
1758447620058931000,2.297930908203125,0.030550852417945862,-0.002178863389417529,0.004708337597548962
1758447620068904000,2.307904052734375,0.02921527810394764,-0.00014314311556518078,0.0005876282230019569
1758447620078877000,2.317876953125,0.03423353284597397,-0.0002235790016129613,-0.00041961902752518654
1758447620088849200,2.32784912109375,0.03689003735780716,-0.005960826762020588,-0.0017972721252590418
1758447620098822000,2.33782177734375,0.047599732875823975,-0.01655568741261959,-0.0013565556146204472
1758447620108795000,2.347794921875,0.055238742381334305,-0.0316677950322628,0.003970033023506403
1758447620118767900,2.357767822265625,0.06064963340759277,-0.039484355598688126,0.0071923937648534775
1758447620128740000,2.367739990234375,0.06625692546367645,-0.026530206203460693,0.011011366732418537
1758447620138712800,2.377712890625,0.06444688886404037,-0.008826999925076962,0.0042197080329060555
1758447620148685800,2.387685791015625,0.055238209664821625,0.0014525356236845255,-0.018686139956116676
1758447620158659000,2.3976591796875,0.044888369739055634,-0.0009630752028897405,-0.038566913455724716
1758447620168632000,2.407632080078125,0.03546930104494095,-0.007922980934381485,-0.04978920519351959
1758447620178603800,2.417603759765625,0.026503384113311768,-0.02230275794863701,-0.055402159690856934
1758447620188577000,2.427576904296875,0.023608528077602386,-0.03206031024456024,-0.04781561344861984
1758447620198550000,2.437550048828125,0.0256655253469944,-0.0396658331155777,-0.03319736570119858
1758447620208523000,2.44752294921875,0.026408810168504715,-0.04052150622010231,-0.01961630955338478
1758447620218495000,2.457494873046875,0.022988632321357727,-0.03170887753367424,-0.008141867816448212
1758447620228468000,2.467468017578125,0.01609077863395214,-0.023122044280171394,-0.0046318210661411285
1758447620238441000,2.47744091796875,0.006534764543175697,-0.008105466142296791,-0.005296912509948015
1758447620248414000,2.4874140625,-0.002157527254894376,0.010805107653141022,-0.004312874749302864
1758447620258386000,2.497385986328125,-0.0032163693103939295,0.026884276419878006,-0.006196419708430767
1758447620268359000,2.50735888671875,-0.0008280465845018625,0.04135455936193466,-0.006742633879184723
1758447620278332000,2.517331787109375,0.006681416649371386,0.04425444081425667,-0.013846157118678093
1758447620288305200,2.52730517578125,0.009161352179944515,0.03911347687244415,-0.023676948621869087
1758447620298278000,2.53727783203125,0.009442372247576714,0.028812341392040253,-0.028476780280470848
1758447620308249900,2.547249755859375,0.010802715085446835,0.012564130127429962,-0.023039937019348145
1758447620318223000,2.55722314453125,0.009067785926163197,-0.006819846108555794,-0.009283178485929966
1758447620328196000,2.567196044921875,0.01040948648005724,-0.025400720536708832,0.0033303513191640377
1758447620338168800,2.5771689453125,0.01104038953781128,-0.029415631666779518,0.012712263502180576
1758447620348141000,2.58714111328125,0.019805120304226875,-0.019474850967526436,0.014316816814243793
1758447620358114000,2.597114013671875,0.030742838978767395,-0.015990331768989563,0.006915965583175421
1758447620368087000,2.607087158203125,0.037141352891922,-0.023747853934764862,-0.004937497898936272
1758447620378059800,2.617059814453125,0.03292757645249367,-0.024692585691809654,-0.01352346409112215
1758447620388032000,2.627031982421875,0.025033436715602875,-0.019236834719777107,-0.017845507711172104
1758447620398005000,2.6370048828125,0.017412949353456497,-0.007171349599957466,-0.02322344109416008
1758447620407978000,2.64697802734375,0.010704446583986282,-0.0015747167635709047,-0.034087274223566055
1758447620417951000,2.656950927734375,0.009141910821199417,-0.00760263204574585,-0.04475134238600731
1758447620427923000,2.6669228515625,0.014287671074271202,-0.014869599603116512,-0.043698329478502274
1758447620437896000,2.67689599609375,0.016185913234949112,-0.01853456161916256,-0.028790853917598724
1758447620447869200,2.686869140625,0.017886074259877205,-0.007311203517019749,-0.011063521727919579
1758447620457842000,2.696842041015625,0.01754557527601719,0.007511989213526249,0.00013248156756162643
1758447620467814000,2.70681396484375,0.011461317539215088,0.021300772204995155,0.0000025192275643348694
1758447620477787100,2.716787109375,0.012431950308382511,0.027691518887877464,0.0004354575648903847
1758447620487760100,2.726760009765625,0.01858518458902836,0.023595843464136124,0.0022677122615277767
1758447620497732900,2.73673291015625,0.019515810534358025,0.018403977155685425,0.014054007828235626
1758447620507705900,2.746705810546875,0.025171300396323204,0.022859977558255196,0.03435954451560974
1758447620517678000,2.756677978515625,0.023789770901203156,0.02581285685300827,0.04425020515918732
1758447620527651000,2.766651123046875,0.02122434601187706,0.018559470772743225,0.035523559898138046
1758447620537623800,2.776623779296875,0.010566968470811844,0.00709581607952714,0.011711006984114647
1758447620547597000,2.78659716796875,-0.00011763372458517551,0.0032864301465451717,-0.010334108024835587
1758447620557569000,2.796569091796875,-0.004006736911833286,0.013099409639835358,-0.02103225514292717
1758447620567542000,2.8065419921875,-0.006042723543941975,0.015721291303634644,-0.01755177043378353
1758447620577515000,2.816514892578125,-0.008197310380637646,0.01782647892832756,-0.0016248265746980906
1758447620587488000,2.826488037109375,-0.006795688532292843,0.016537241637706757,0.016019415110349655
1758447620597460000,2.8364599609375,-0.000010278774425387383,0.010944416746497154,0.029251761734485626
1758447620607433000,2.846432861328125,0.005428428761661053,0.005555776879191399,0.032077375799417496
1758447620617406000,2.856406005859375,0.009191564284265041,-0.0037298258394002914,0.028965028002858162
1758447620627379000,2.86637890625,0.009764676913619041,-0.0074068522080779076,0.026047801598906517
1758447620637351000,2.876350830078125,0.008406375534832478,-0.010996107012033463,0.02082725428044796
1758447620647324200,2.88632421875,0.009282022714614868,-0.005522511899471283,0.01480850949883461
1758447620657297000,2.896296875,0.01207772083580494,-0.0026512041222304106,0.01453531626611948
1758447620667270000,2.906269775390625,0.013237261213362217,-0.005327947437763214,0.01601496711373329
1758447620677243000,2.916242919921875,0.015873730182647705,-0.02839815802872181,0.026525557041168213
1758447620687215000,2.926215087890625,0.0068855625577270985,-0.05879894271492958,0.0356074683368206
1758447620697187800,2.936187744140625,0.006352397613227367,-0.07454994320869446,0.03347054868936539
1758447620707160800,2.946160888671875,0.010075230151414871,-0.06573674082756042,0.02445574849843979
1758447620717134000,2.956134033203125,0.008830350823700428,-0.041633643209934235,0.015374697744846344
1758447620727105800,2.966105712890625,0.010311335325241089,-0.012052050791680813,0.006386795546859503
1758447620737078800,2.976078857421875,0.011257199570536613,0.013670654036104679,-0.0032045403495430946
1758447620747052000,2.986052001953125,0.014632225036621094,0.01370847038924694,-0.00856122188270092
1758447620757025000,2.99602490234375,0.011506058275699615,0.015895424410700798,-0.0017798054032027721
1758447620766996700,3.005996826171875,0.006292121484875679,0.014672767370939255,0.0036386619322001934
1758447620776970000,3.015969970703125,0.004510111175477505,-0.004437319003045559,0.007320125587284565
1758447620786943000,3.02594287109375,-0.003790162969380617,-0.02221977896988392,0.010974780656397343
1758447620796916000,3.035916015625,-0.008672742173075676,-0.03810575231909752,0.012653481215238571
1758447620806888000,3.045887939453125,-0.00860909279435873,-0.040310584008693695,0.015221832320094109
1758447620816861000,3.05586083984375,-0.011103914119303226,-0.031597722321748734,0.012692740187048912
1758447620826834000,3.065833984375,-0.011878094635903835,-0.0068841190077364445,0.010013867169618607
1758447620836807000,3.075806884765625,-0.007846956141293049,0.028239596635103226,0.004708232823759317
1758447620846779000,3.08577880859375,-0.0016314040403813124,0.05311325564980507,-0.0000673471949994564
1758447620856751900,3.095751953125,0.004437169060111046,0.06049586832523346,0.0003839056007564068
1758447620866724900,3.105724853515625,0.002771361730992794,0.048851463943719864,0.004920599982142448
1758447620876698000,3.115697998046875,-0.0027617698069661856,0.026972567662596703,0.015382103621959686
1758447620886671000,3.125671142578125,-0.011873508803546429,0.0015529630472883582,0.031979192048311234
1758447620896642800,3.135642822265625,-0.018158331513404846,-0.017601819708943367,0.049411725252866745
1758447620906616000,3.145615966796875,-0.017849670723080635,-0.028732234612107277,0.06039220839738846
1758447620916589000,3.155589111328125,-0.009389636106789112,-0.019855115562677383,0.06251822412014008
1758447620926562000,3.16556201171875,0.0030180311296135187,-0.00568150682374835,0.05527522787451744
1758447620936534000,3.175533935546875,0.011564232409000397,0.003382937517017126,0.03872548043727875
1758447620946507000,3.185507080078125,0.011508039198815823,0.014216942712664604,0.022843720391392708
1758447620956480000,3.19547998046875,0.013944744132459164,0.025575939565896988,0.013908196240663528
1758447620966453000,3.205452880859375,0.01678420789539814,0.030545933172106743,0.015436584129929543
1758447620976425000,3.215425048828125,0.015749717131257057,0.016658378764986992,0.018891826272010803
1758447620986398000,3.22539794921875,0.01233634352684021,0.0026227207854390144,0.018886234611272812
1758447620996371000,3.235370849609375,0.006631673779338598,-0.015824615955352783,0.009142747148871422
1758447621006344200,3.24534423828125,0.00026085972785949707,-0.04469195008277893,-0.005075870081782341
1758447621016316000,3.25531591796875,-0.005583653226494789,-0.07094188779592514,-0.021859003230929375
1758447621026289000,3.265288818359375,-0.00796904694288969,-0.08920557796955109,-0.0355556383728981
1758447621036262100,3.27526220703125,-0.011563013307750225,-0.0938182920217514,-0.04050218313932419
1758447621046235400,3.2852353515625,-0.018327441066503525,-0.08628368377685547,-0.03749654069542885
1758447621056207400,3.295207275390625,-0.01755601540207863,-0.05330792814493179,-0.027528151869773865
1758447621066180400,3.305180419921875,-0.015613238327205181,-0.022391023114323616,-0.018729867413640022
1758447621076153300,3.3151533203125,-0.012379953637719154,-0.010995810851454735,-0.013513636775314808
1758447621086126300,3.325126220703125,-0.008626759052276611,-0.008897505700588226,-0.014476102776825428
1758447621096098300,3.335098388671875,0.0015626726672053337,-0.017673000693321228,-0.014139700680971146
1758447621106071300,3.3450712890625,0.007351852022111416,-0.028123244643211365,-0.010652823373675346
1758447621116044300,3.355044189453125,0.011830724775791168,-0.028556926175951958,-0.009488743729889393
1758447621126017300,3.365017333984375,0.010437625460326672,-0.015961240977048874,-0.01583079621195793
1758447621135989500,3.374989501953125,0.01355503499507904,-0.004011163953691721,-0.027524281293153763
1758447621145962200,3.384962158203125,0.01704750582575798,-0.0000033726682886481285,-0.03876255452632904
1758447621155935200,3.394935302734375,0.014896764419972897,-0.008556508459150791,-0.05234496667981148
1758447621165908200,3.404908203125,0.010487634688615799,-0.027695847675204277,-0.05794905871152878
1758447621175880400,3.41488037109375,0.002070330549031496,-0.038777370005846024,-0.04938773065805435
1758447621185853200,3.424853271484375,-0.0008927027229219675,-0.03579835966229439,-0.02572580985724926
1758447621195826200,3.434826171875,0.00028234138153493404,-0.04024504870176315,0.005957516375929117
1758447621205799400,3.44479931640625,0.004031273070722818,-0.04335934668779373,0.02683137357234955
1758447621215772400,3.4547724609375,0.013739947229623795,-0.04781758412718773,0.03064962476491928
1758447621225744100,3.464744140625,0.018303805962204933,-0.04122226685285568,0.019350100308656693
1758447621235717400,3.47471728515625,0.020118098706007004,-0.024357231333851814,-0.002276043174788356
1758447621245690400,3.4846904296875,0.019899720326066017,-0.004700705409049988,-0.022489968687295914
1758447621255663400,3.494663330078125,0.01577862724661827,0.009048748761415482,-0.03967275097966194
1758447621265635300,3.50463525390625,0.01239854283630848,0.01222776435315609,-0.05022898688912392
1758447621275608300,3.5146083984375,0.006554471794515848,0.0036315638571977615,-0.05555863305926323
1758447621285581300,3.524581298828125,-0.0037929743994027376,-0.013515464961528778,-0.05370693653821945
1758447621295554300,3.53455419921875,-0.012135980650782585,-0.032126329839229584,-0.04336915537714958
1758447621305526300,3.5445263671875,-0.01921279914677143,-0.04130171984434128,-0.026790710166096687
1758447621315499300,3.554499267578125,-0.02126999758183956,-0.04904290288686752,-0.016920804977416992
1758447621325472300,3.56447216796875,-0.016736233606934547,-0.05827607959508896,-0.008630650117993355
1758447621335445500,3.574445556640625,-0.008732428774237633,-0.06413421034812927,-0.009261265397071838
1758447621345417200,3.584417236328125,0.002474419306963682,-0.0641656294465065,-0.01871069334447384
1758447621355390200,3.59439013671875,0.016728222370147705,-0.04734266176819801,-0.02791125699877739
1758447621365363500,3.604363525390625,0.023395180702209473,-0.018347762525081635,-0.03190679848194122
1758447621375336400,3.61433642578125,0.02133019268512726,0.007740825414657593,-0.034236013889312744
1758447621385308200,3.62430810546875,0.018908048048615456,0.033398520201444626,-0.031902022659778595
1758447621395281400,3.634281494140625,0.01918087527155876,0.05211605131626129,-0.029190583154559135
1758447621405254400,3.64425439453125,0.013950425200164318,0.053934190422296524,-0.024451754987239838
1758447621415227400,3.654227294921875,0.008707902394235134,0.04795089736580849,-0.020073745399713516
1758447621425199400,3.664199462890625,0.008206162601709366,0.030349265784025192,-0.011343102902173996
1758447621435172400,3.67417236328125,0.005201762542128563,0.008536799810826778,0.006215695291757584
1758447621445145300,3.684145263671875,0.0061101666651666164,-0.00557955214753747,0.02467885985970497
1758447621455118300,3.694118408203125,0.012413958087563515,-0.007213893346488476,0.04612165689468384
1758447621465090300,3.70409033203125,0.0187687948346138,-0.0006635821191594005,0.05900336802005768
1758447621475063300,3.714063232421875,0.02040734700858593,0.012655911035835743,0.05626581236720085
1758447621485036300,3.724036376953125,0.018929557874798775,0.018130037933588028,0.03964422643184662
1758447621495009500,3.734009521484375,0.013952555134892464,0.023304713889956474,0.014651037752628326
1758447621504981200,3.743981201171875,0.006179586984217167,0.031144527718424797,-0.005255026742815971
1758447621514954200,3.753954345703125,-0.002654917072504759,0.03256026282906532,-0.011107856407761574
1758447621524927500,3.763927490234375,-0.006915709003806114,0.02580462396144867,-0.0014168790075927973
1758447621534900500,3.773900390625,-0.0085850665345788,0.0025931973941624165,0.01466173492372036
1758447621544872200,3.7838720703125,-0.010016249492764473,-0.017120853066444397,0.028714701533317566
1758447621554845400,3.793845458984375,-0.01440037414431572,-0.032737091183662415,0.039595864713191986
1758447621564818400,3.803818359375,-0.01410609483718872,-0.034231122583150864,0.05123388022184372
1758447621574791400,3.81379150390625,-0.011681227013468742,-0.020724253728985786,0.06540266424417496
1758447621584763400,3.823763427734375,-0.010957379825413227,0.008434428833425045,0.07500362396240234
1758447621594736400,3.833736328125,-0.009871404618024826,0.03938224911689758,0.07037108391523361
1758447621604709400,3.84370947265625,-0.007900931872427464,0.05831626057624817,0.046728070825338364
1758447621614682400,3.853682373046875,-0.011302677914500237,0.05147216096520424,0.013168690726161003
1758447621624654300,3.863654296875,-0.018016772344708443,0.02776177227497101,-0.019371142610907555
1758447621634627300,3.87362744140625,-0.02395458146929741,-0.005644259508699179,-0.03276496008038521
1758447621644600300,3.883600341796875,-0.03022526018321514,-0.028858235105872154,-0.019132770597934723
1758447621654573600,3.893573486328125,-0.034894995391368866,-0.039850857108831406,0.007912633009254932
1758447621664545300,3.903545166015625,-0.04176914691925049,-0.038693711161613464,0.03180491924285889
1758447621674518300,3.913518310546875,-0.04493623971939087,-0.02270793914794922,0.045461636036634445
1758447621684491500,3.923491455078125,-0.04326963052153587,0.0006008456693962216,0.046419307589530945
1758447621698203400,3.937203369140625,-0.03309931606054306,0.028484484180808067,0.03182240203022957
1758447621708176400,3.94717626953125,-0.021331489086151123,0.03129548951983452,0.03257162496447563
1758447621718148400,3.9571484375,-0.019527995958924294,0.040646377950906754,0.022824719548225403
1758447621728121300,3.967121337890625,-0.020588139072060585,0.016810333356261253,0.0016066241078078747
1758447621738094300,3.97709423828125,-0.02423453889787197,0.0024319258518517017,-0.009699293412268162
1758447621748067300,3.9870673828125,-0.03587983176112175,-0.0186302587389946,-0.009929747320711613
1758447621758039300,3.997039306640625,-0.04719773679971695,-0.03130876645445824,-0.006367236841470003
1758447621768012300,4.00701220703125,-0.05070861056447029,-0.02073940448462963,0.0048192525282502174
1758447621777985300,4.0169853515625,-0.04702465981245041,0.006370774935930967,0.018852513283491135
1758447621787958300,4.026958251953125,-0.038683705031871796,0.028485886752605438,0.017530148848891258
1758447621797930200,4.03693017578125,-0.028201499953866005,0.030624670907855034,-0.005688087083399296
1758447621807903200,4.0469033203125,-0.022804103791713715,0.01741626486182213,-0.04269042983651161
1758447621817876200,4.056876220703125,-0.029955487698316574,0.010655831545591354,-0.06932231038808823
1758447621827849500,4.066849365234375,-0.041033729910850525,0.013629982247948647,-0.07205242663621902
1758447621837821200,4.0768212890625,-0.04866315424442291,0.027693869546055794,-0.052638787776231766
1758447621847794200,4.086794189453125,-0.04810294508934021,0.04809524491429329,-0.024050893262028694
1758447621857767400,4.096767333984375,-0.03600500151515007,0.05640776827931404,-0.00048191705718636513
1758447621867740400,4.106740478515625,-0.017983805388212204,0.05329670011997223,0.010721543803811073
1758447621877712100,4.116712158203125,-0.0007896390743553638,0.03759017586708069,0.013772992417216301
1758447621887685400,4.126685302734375,0.007340989541262388,0.015785083174705505,0.011134730651974678
1758447621897658400,4.136658447265625,0.007837668992578983,0.003854121547192335,0.010887057520449162
1758447621907631400,4.14663134765625,0.0016349006909877062,0.005453882273286581,0.01166523341089487
1758447621917603300,4.156603271484375,-0.0004978466313332319,0.006726227700710297,0.008700113743543625
1758447621927576300,4.166576416015625,-0.0024100595619529486,0.009654328227043152,0.004826975986361504
1758447621937549300,4.17654931640625,0.00045656715519726276,0.011157416738569736,0.0012751175090670586
1758447621947522300,4.186522216796875,0.006496646907180548,0.005144989117980003,-0.003983442205935717
1758447621957494300,4.196494384765625,0.008997621014714241,-0.011492576450109482,-0.004894509445875883
1758447621967467300,4.20646728515625,0.008965637534856796,-0.037251003086566925,-0.008269385434687138
1758447621977440300,4.216440185546875,0.014457608573138714,-0.0476386621594429,-0.011851869523525238
1758447621987413500,4.22641357421875,0.00479796901345253,-0.06098360940814018,-0.009614769369363785
1758447621997386500,4.236386474609375,-0.01169365644454956,-0.08339597284793854,-0.008938858285546303
1758447622007359200,4.246359130859375,-0.017433898523449898,-0.0897049754858017,-0.004456197377294302
1758447622017332200,4.256332275390625,-0.015719356015324593,-0.06808916479349136,-0.0003155143931508064
1758447622027304400,4.266304443359375,-0.007007235661149025,-0.04866516590118408,-0.009002006612718105
1758447622037277400,4.27627734375,-0.00029393890872597694,-0.03829801455140114,-0.027618832886219025
1758447622047250200,4.286250244140625,0.00780996959656477,-0.01024671271443367,-0.04470602795481682
1758447622057223400,4.296223388671875,0.017151007428765297,0.0188126377761364,-0.05911159887909889
1758447622067195400,4.3061953125,0.024871397763490677,0.03653598949313164,-0.07367423176765442
1758447622077168000,4.316168212890625,0.026116158813238144,0.05888151004910469,-0.0791129395365715
1758447622087141400,4.326141357421875,0.028563249856233597,0.05352824553847313,-0.0735401064157486
1758447622097114400,4.3361142578125,0.020238740369677544,0.04937877506017685,-0.045658670365810394
1758447622107086300,4.34608642578125,0.014191411435604095,0.03879259526729584,-0.004061648156493902
1758447622117059300,4.356059326171875,0.016955507919192314,0.017465204000473022,0.030616171658039093
1758447622127032300,4.3660322265625,0.01860039122402668,-0.0022498019970953465,0.05769459903240204
1758447622137005300,4.37600537109375,0.022478487342596054,-0.016246311366558075,0.06863166391849518
1758447622146977300,4.385977294921875,0.022803571075201035,-0.03236254304647446,0.06098151579499245
1758447622156950300,4.3959501953125,0.02337641641497612,-0.032121527940034866,0.04096519574522972
1758447622166923300,4.40592333984375,0.027696385979652405,-0.011734770610928535,0.02254621312022209
1758447622176896300,4.415896240234375,0.032086871564388275,0.02049587108194828,0.014906935393810272
1758447622186868200,4.4258681640625,0.036336276680231094,0.05440894514322281,0.015560979023575783
1758447622196841200,4.43584130859375,0.03546728566288948,0.05705399811267853,0.012201933190226555
1758447622206814200,4.445814208984375,0.031085049733519554,0.029539356008172035,-0.0009475566912442446
1758447622216787500,4.455787353515625,0.01656309887766838,-0.01382303424179554,-0.015678565949201584
1758447622226759200,4.46575927734375,0.004865581169724464,-0.055705077946186066,-0.02966250106692314
1758447622236732200,4.475732177734375,0.0041641048155725,-0.0779254287481308,-0.02747897431254387
1758447622246705400,4.485705322265625,0.0043551078997552395,-0.07655391097068787,-0.009274698793888092
1758447622256678400,4.495678466796875,0.0025801111478358507,-0.05797622725367546,0.010317644104361534
1758447622266650000,4.505650146484375,0.0035239083226770163,-0.027017245069146156,0.01948532462120056
1758447622276623400,4.515623291015625,0.009111752733588219,0.00638971384614706,0.020127147436141968
1758447622286596400,4.525596435546875,0.012310653924942017,0.027570785954594612,0.017339661717414856
1758447622296569300,4.5355693359375,0.018748046830296516,0.03605695068836212,0.016732990741729736
1758447622306541300,4.545541259765625,0.023748867213726044,0.029267175123095512,0.014948572963476181
1758447622316514300,4.555514404296875,0.02343248389661312,0.008474810980260372,0.006556419190019369
1758447622326487300,4.5654873046875,0.021015223115682602,-0.01673809252679348,0.0019183452241122723
1758447622336460300,4.575460205078125,0.015208466909825802,-0.04699186980724335,-0.011544733308255672
1758447622346432300,4.585432373046875,0.008524349890649319,-0.07082486897706985,-0.018714969977736473
1758447622356405200,4.5954052734375,0.005086475983262062,-0.07272956520318985,-0.0145425945520401
1758447622366378200,4.605378173828125,0.00236679520457983,-0.05946021527051926,-0.0030821841210126877
1758447622376351200,4.615351318359375,-0.004901237785816193,-0.04028146341443062,0.007896164432168007
1758447622386323200,4.6253232421875,-0.007331754080951214,-0.01830170303583145,0.010812385007739067
1758447622396296200,4.635296142578125,-0.0009311127942055464,0.016516998410224915,0.009521285071969032
1758447622406269200,4.645269287109375,-0.00046973745338618755,0.03173121064901352,0.0036681299097836018
1758447622416242400,4.655242431640625,-0.0007957087364047766,0.03060522861778736,-0.005305390805006027
1758447622426214100,4.665214111328125,-0.0037162171211093664,0.028737902641296387,-0.009809417650103569
1758447622436187400,4.6751875,-0.007979138754308224,0.020307667553424835,-0.009856821969151497
1758447622446160400,4.685160400390625,-0.01936628855764866,0.012135634198784828,-0.005710545927286148
1758447622456133400,4.69513330078125,-0.02581406757235527,0.007059115916490555,0.0005992813967168331
1758447622466105300,4.705105224609375,-0.028847673907876015,0.003046797588467598,0.005862487014383078
1758447622476078300,4.715078369140625,-0.030047161504626274,0.0017517023952677846,0.00806012749671936
1758447622486051300,4.72505126953125,-0.03215629607439041,0.001898749964311719,0.005309170577675104
1758447622496024300,4.7350244140625,-0.032484930008649826,-0.0007984995609149337,-0.0013141115196049213
1758447622505996300,4.744996337890625,-0.029584329575300217,-0.004141602665185928,-0.008026416413486004
1758447622515969300,4.75496923828125,-0.02732783369719982,-0.003952252212911844,-0.0216202549636364
1758447622525942300,4.7649423828125,-0.026064731180667877,0.0038112751208245754,-0.030782047659158707
1758447622535915300,4.774915283203125,-0.01802651211619377,0.020634198561310768,-0.03519304096698761
1758447622545887200,4.78488720703125,-0.01085636019706726,0.040678903460502625,-0.030725780874490738
1758447622555860200,4.794860107421875,-0.004397927783429623,0.05571111664175987,-0.02425003983080387
1758447622565833200,4.804833251953125,-0.0011784627567976713,0.05274736508727074,-0.01803167536854744
1758447622575806500,4.814806396484375,0.0002196968998759985,0.03701287508010864,-0.007125232834368944
1758447622585778200,4.824778076171875,0.0004967506974935532,0.010565204545855522,0.002191126812249422
1758447622595751200,4.834751220703125,-0.00226681143976748,-0.02434191294014454,0.011412854306399822
1758447622605724400,4.844724365234375,-0.007458146195858717,-0.0644012987613678,0.004315814934670925
1758447622615697400,4.854697509765625,-0.020220013335347176,-0.07687527686357498,0.0011514467187225819
1758447622625669000,4.864669189453125,-0.024325888603925705,-0.06696618348360062,0.0014918390661478043
1758447622635642400,4.874642333984375,-0.026899835094809532,-0.053593914955854416,0.005137707106769085
1758447622645615400,4.884615478515625,-0.024995502084493637,-0.05222182720899582,0.012002317234873772
1758447622655588400,4.89458837890625,-0.023170970380306244,-0.03633580356836319,0.011625213548541069
1758447622665560300,4.904560302734375,-0.018795248121023178,0.0003550620749592781,0.0002385275438427925
1758447622675533300,4.914533203125,-0.01783757656812668,0.020576976239681244,-0.019205210730433464
1758447622685506300,4.92450634765625,-0.01592017151415348,0.0249634962528944,-0.03369703143835068
1758447622695479300,4.934479248046875,-0.017630986869335175,0.01484614796936512,-0.02906765788793564
1758447622705451300,4.944451171875,-0.02097587287425995,0.0007713179802522063,-0.011760863475501537
1758447622715424300,4.95442431640625,-0.017833875492215157,-0.009477591142058372,0.006083913613110781
1758447622725397200,4.964397216796875,-0.017081059515476227,-0.020863519981503487,0.016811423003673553
1758447622735369200,4.974369140625,-0.017373740673065186,-0.029285235330462456,0.016751769930124283
1758447622745342200,4.98434228515625,-0.018227165564894676,-0.02933632954955101,0.01131606288254261
1758447622755315200,4.994315185546875,-0.01542711816728115,-0.02229226753115654,0.0032032765448093414
1758447622765288400,5.004288330078125,-0.013252795673906803,-0.011203093454241753,-0.009650396183133125
1758447622775260200,5.01426025390625,-0.010569394566118717,0.023495232686400414,-0.02411029487848282
1758447622785233200,5.024233154296875,-0.005681904964148998,0.03920460492372513,-0.042829547077417374
1758447622795206400,5.034206298828125,-0.006950634531676769,0.025967897847294807,-0.06787950545549393
1758447622805179400,5.044179443359375,-0.015123426914215088,-0.0036852536723017693,-0.09123392403125763
1758447622815151000,5.054151123046875,-0.026550784707069397,-0.034014396369457245,-0.10174062848091125
1758447622825124400,5.064124267578125,-0.03307503089308739,-0.03759939596056938,-0.09042031317949295
1758447622835097300,5.074097412109375,-0.03370700031518936,-0.022356264293193817,-0.0666918158531189
1758447622845070300,5.0840703125,-0.037420567125082016,-0.007409264333546162,-0.04346449300646782
1758447622855042300,5.094042236328125,-0.03312036022543907,0.002350421855226159,-0.03241636976599693
1758447622865015300,5.104015380859375,-0.022008705884218216,0.011177768930792809,-0.030178189277648926
1758447622874988300,5.11398828125,-0.006349585950374603,0.016794376075267792,-0.030394703149795532
1758447622884961300,5.123961181640625,0.005576818250119686,0.01251262053847313,-0.031614020466804504
1758447622894933200,5.133933349609375,0.008295639418065548,-0.006070650182664394,-0.030812406912446022
1758447622904906200,5.14390625,0.00022838730365037918,-0.029288817197084427,-0.026465725153684616
1758447622914879200,5.153879150390625,-0.010515603236854076,-0.03970497101545334,-0.012513425201177597
1758447622924852500,5.1638525390625,-0.023882625624537468,-0.0502837635576725,-0.0005034594796597958
1758447622934824200,5.17382421875,-0.032411132007837296,-0.061309248208999634,0.005790389142930508
1758447622944797200,5.183797119140625,-0.035238251090049744,-0.06179937347769737,0.003705756738781929
1758447622954770400,5.1937705078125,-0.028921229764819145,-0.05173581838607788,-0.005924234166741371
1758447622964743400,5.203743408203125,-0.024703262373805046,-0.034042779356241226,-0.02370685711503029
1758447622974715100,5.213715087890625,-0.016808854416012764,0.005961894057691097,-0.03561198711395264
1758447622984688400,5.2236884765625,-0.01376409363001585,0.04742418974637985,-0.04362742230296135
1758447622994661400,5.233661376953125,-0.018472561612725258,0.0622183196246624,-0.051485609263181686
1758447623004634400,5.24363427734375,-0.02122177742421627,0.05994439125061035,-0.05056041106581688
1758447623014606300,5.2536064453125,-0.020882224664092064,0.04716414958238602,-0.03695991262793541
1758447623024579300,5.263579345703125,-0.019868118688464165,0.013552394695580006,-0.014446867629885674
1758447623034552300,5.27355224609375,-0.022397322580218315,-0.02617717534303665,0.00861850380897522
1758447623044524800,5.28352490234375,-0.02645130082964897,-0.06152808293700218,0.023250233381986618
1758447623054497000,5.2934970703125,-0.03229827061295509,-0.07477890700101852,0.026590105146169662
1758447623064469800,5.3034697265625,-0.034639015793800354,-0.06101725995540619,0.020402031019330025
1758447623074442800,5.31344287109375,-0.03871365264058113,-0.03801873326301575,-0.0018409558106213808
1758447623084415000,5.3234150390625,-0.03834039345383644,-0.001572417444549501,-0.02658912166953087
1758447623094388000,5.333387939453125,-0.03419651463627815,0.050290513783693314,-0.0415896438062191
1758447623104360700,5.343360595703125,-0.029049718752503395,0.10087733715772629,-0.03477979078888893
1758447623114334000,5.353333984375,-0.023819537833333015,0.15715524554252625,-0.012430278584361076
1758447623124306000,5.363305908203125,-0.013415796682238579,0.21195751428604126,0.02083282358944416
1758447623134279000,5.37327880859375,0.0023740853648632765,0.2708735466003418,0.04924102872610092
1758447623144252000,5.383251953125,0.00411749305203557,0.2700638473033905,0.04467858001589775
1758447623154225000,5.393224853515625,0.0031036275904625654,0.26815542578697205,0.03252391144633293
1758447623164196900,5.40319677734375,0.0016519689233973622,0.3271885812282562,0.029878713190555573
1758447623174170000,5.413170166015625,0.018574226647615433,0.43092241883277893,0.056549202650785446
1758447623184142800,5.423142822265625,0.04856863617897034,0.5434841513633728,0.12368562072515488
1758447623194115800,5.43311572265625,0.10834168642759323,0.6327964663505554,0.21778228878974915
1758447623204088000,5.443088134765625,0.17038759589195251,0.7429187297821045,0.32947081327438354
1758447623214061000,5.45306103515625,0.20739808678627014,0.8285462856292725,0.43973979353904724
1758447623224033800,5.46303369140625,0.23269738256931305,0.8420243263244629,0.4927370846271515
1758447623234006800,5.4730068359375,0.26823142170906067,0.8764536380767822,0.4878946542739868
1758447623243979000,5.48297900390625,0.3070909082889557,0.9916572570800781,0.4789969027042389
1758447623253952000,5.492951904296875,0.33350440859794617,1.1445101499557495,0.461130291223526
1758447623263924700,5.5029248046875,0.32088032364845276,1.2639998197555542,0.4333450496196747
1758447623273898000,5.51289794921875,0.2690408229827881,1.391610860824585,0.3731752038002014
1758447623283870000,5.522869873046875,0.031934477388858795,1.3574316501617432,0.3186025321483612
1758447623293843000,5.532843017578125,-0.19473302364349365,1.435078740119934,0.3241499066352844
1758447623303816000,5.54281591796875,-0.3326602876186371,1.5267256498336792,0.3241874575614929
1758447623313789000,5.552788818359375,-0.3960514962673187,1.6059749126434326,0.3569302260875702
1758447623323761000,5.562760986328125,-0.3233594596385956,1.7583868503570557,0.41338565945625305
1758447623333734100,5.572734130859375,-0.2788735032081604,1.9326452016830444,0.44187986850738525
1758447623343707000,5.582706787109375,-0.34462770819664,2.0493836402893066,0.4601820111274719
1758447623353680000,5.592679931640625,-0.5054535865783691,1.906859278678894,0.35462018847465515
1758447623363652000,5.602652099609375,-0.688169002532959,1.5919122695922852,0.1726616621017456
1758447623373625000,5.612625,-0.8578329086303711,1.3403937816619873,0.0019146963022649288
1758447623383597800,5.622597900390625,-0.9836794137954712,1.1350740194320679,-0.13356034457683563
1758447623393570000,5.632570068359375,-1.056509256362915,0.8913825154304504,-0.229751855134964
1758447623403543000,5.64254296875,-1.0663362741470337,0.6484847068786621,-0.2821228504180908
1758447623413516000,5.65251611328125,-0.9440239667892456,0.782985508441925,-0.24058900773525238
1758447623423488800,5.66248876953125,-0.6971468329429626,1.0758522748947144,-0.2274773269891739
1758447623433461000,5.6724609375,-0.394581139087677,1.104959487915039,-0.3241647183895111
1758447623443434000,5.68243408203125,-0.3013783395290375,0.8550583124160767,-0.5100627541542053
1758447623453407000,5.692406982421875,-0.40457475185394287,0.5872257947921753,-0.6512784957885742
1758447623463380000,5.7023798828125,-0.5259151458740234,0.41725391149520874,-0.6897962689399719
1758447623473352000,5.71235205078125,-0.6287283301353455,0.3278380334377289,-0.6352813839912415
1758447623483325000,5.722324951171875,-0.7319043874740601,0.17580626904964447,-0.5774364471435547
1758447623493298000,5.7322978515625,-0.8779169917106628,-0.12367390841245651,-0.5763730406761169
1758447623503271000,5.74227099609375,-1.0994558334350586,-0.4802221953868866,-0.5954416990280151
1758447623513243000,5.752242919921875,-1.3430477380752563,-0.8300920724868774,-0.6764795184135437
1758447623523216100,5.762216064453125,-1.6077420711517334,-1.2299996614456177,-0.8148105144500732
1758447623533188900,5.77218896484375,-1.8404541015625,-1.5895283222198486,-0.8852308988571167
1758447623543161900,5.782161865234375,-1.9857993125915527,-2.0133001804351807,-0.8591585159301758
1758447623553134000,5.792134033203125,-1.9896718263626099,-2.5011000633239746,-0.7398582100868225
1758447623563107000,5.802107177734375,-1.8739662170410156,-2.897800922393799,-0.5480062365531921
1758447623573079800,5.812079833984375,-1.7000272274017334,-3.0070130825042725,-0.42091673612594604
1758447623583052000,5.822052001953125,-1.5369813442230225,-2.8431763648986816,-0.24079525470733643
1758447623593025000,5.83202490234375,-1.2743492126464844,-2.531470537185669,-0.07797356694936752
1758447623602998000,5.841998046875,-0.9510480165481567,-2.0969841480255127,0.023577231913805008
1758447623612970800,5.851970703125,-0.7201237082481384,-2.098068952560425,0.22159630060195923
1758447623622943000,5.86194287109375,-0.6746084094047546,-2.0292859077453613,0.35426461696624756
1758447623632916000,5.871916015625,-0.6185733675956726,-1.9253746271133423,0.4156946837902069
1758447623642889000,5.881888916015625,-0.48178911209106445,-1.4180546998977661,0.42563265562057495
1758447623652862000,5.891862060546875,-0.3547206521034241,-1.37435781955719,0.3978942334651947
1758447623662834000,5.901833984375,-0.2720084488391876,-1.332136631011963,0.3173823356628418
1758447623672807000,5.911806884765625,-0.07534386217594147,-1.431370735168457,0.18510392308235168
1758447623682780000,5.92177978515625,0.1963057816028595,-1.6795283555984497,0.10310424119234085
1758447623692753000,5.9317529296875,0.4937228262424469,-2.1623375415802,0.08532790839672089
1758447623702724900,5.941724853515625,0.7761024832725525,-2.9845128059387207,0.15005049109458923
1758447623712697900,5.95169775390625,0.9962984919548035,-3.9715819358825684,0.25173714756965637
1758447623722671000,5.961671142578125,1.112679362297058,-4.965860366821289,0.43268436193466187
1758447623732642800,5.971642822265625,1.1790187358856201,-5.687858581542969,0.6831631660461426
1758447623742616000,5.981615966796875,1.2996777296066284,-5.80380916595459,0.9180517792701721
1758447623752589000,5.991589111328125,1.4377869367599487,-5.897900581359863,0.9930192232131958
1758447623762562000,6.00156201171875,1.388229250907898,-6.0453619956970215,0.9191204309463501
1758447623772534000,6.011533935546875,1.3607380390167236,-5.835065841674805,0.8460789322853088
1758447623782507000,6.021507080078125,1.5470572710037231,-5.221066474914551,0.7197999954223633
1758447623792480000,6.03147998046875,1.9533555507659912,-4.749109745025635,0.7211863994598389
1758447623802453000,6.041452880859375,2.406609296798706,-4.367232799530029,0.7035417556762695
1758447623812425000,6.051425048828125,2.814971446990967,-4.0842719078063965,0.5747134685516357
1758447623822398000,6.06139794921875,3.2236578464508057,-3.930708646774292,0.2925644814968109
1758447623832371000,6.071370849609375,3.596311330795288,-3.801069498062134,-0.09101886302232742
1758447623842344000,6.081343994140625,3.877276659011841,-3.7234339714050293,-0.43939197063446045
1758447623852316000,6.09131591796875,3.9514997005462646,-3.8280961513519287,-0.5723047256469727
1758447623862289000,6.101288818359375,3.846935987472534,-4.0601372718811035,-0.41257724165916443
1758447623872262000,6.111261962890625,3.6372246742248535,-4.475747108459473,0.03623358532786369
1758447623882233900,6.12123388671875,3.4444639682769775,-5.0740485191345215,0.7035032510757446
1758447623892206800,6.131206787109375,3.3595004081726074,-5.700865745544434,1.4760981798171997
1758447623902179800,6.141179931640625,3.394733428955078,-6.046534061431885,2.2028520107269287
1758447623912153000,6.151153076171875,3.5449583530426025,-6.081847667694092,2.6664364337921143
1758447623922124800,6.161124755859375,3.746860980987549,-5.963476181030273,2.8123438358306885
1758447623932097800,6.171097900390625,3.9378416538238525,-5.678243637084961,2.750926971435547
1758447623942071000,6.181071044921875,4.033121109008789,-5.3289475440979,2.5839457511901855
1758447623952044000,6.1910439453125,3.9372334480285645,-5.152316570281982,2.4433422088623047
1758447623962015700,6.201015625,3.691504955291748,-5.251584053039551,2.469649076461792
1758447623971989000,6.210989013671875,3.3845226764678955,-5.48452091217041,2.7275073528289795
1758447623981962000,6.2209619140625,3.070605754852295,-5.377581596374512,3.1710493564605713
1758447623991935000,6.23093505859375,2.8479084968566895,-4.673683166503906,3.558110237121582
1758447624001907000,6.240906982421875,2.7118139266967773,-3.7085766792297363,3.594252347946167
1758447624011880000,6.2508798828125,2.5544114112854004,-2.7288787364959717,3.2658488750457764
1758447624021853000,6.26085302734375,2.410823106765747,-1.8209654092788696,2.7624082565307617
1758447624031825000,6.270824951171875,2.319697618484497,-1.1004911661148071,2.2962706089019775
1758447624041798000,6.2807978515625,2.20108699798584,-0.703772783279419,2.008445978164673
1758447624051771600,6.290771728515625,1.989083170890808,-0.705249011516571,1.9332069158554077
1758447624061744600,6.30074462890625,1.7255547046661377,-1.112483024597168,2.0578458309173584
1758447624071716900,6.310716796875,1.4812140464782715,-1.637236475944519,2.3746230602264404
1758447624081689600,6.320689697265625,1.305432915687561,-1.9755324125289917,2.7692437171936035
1758447624091662600,6.33066259765625,1.208299160003662,-2.0599312782287598,3.074687957763672
1758447624101635600,6.340635498046875,1.1974120140075684,-1.9460142850875854,3.2344443798065186
1758447624111607800,6.35060791015625,1.2164056301116943,-1.776754379272461,3.2734038829803467
1758447624121580500,6.36058056640625,1.1613109111785889,-1.5248152017593384,3.1821327209472656
1758447624131553500,6.370553466796875,1.0221261978149414,-1.3005571365356445,2.922945261001587
1758447624141526800,6.38052685546875,0.8804512023925781,-1.129518747329712,2.5426056385040283
1758447624151498800,6.390498779296875,0.7965645790100098,-0.9557560682296753,2.1297237873077393
1758447624161471500,6.400471435546875,0.7707690000534058,-0.7730441689491272,1.7407124042510986
1758447624171444700,6.41044482421875,0.7168431878089905,-0.5556458234786987,1.4125851392745972
1758447624181416700,6.420416748046875,0.6028583645820618,-0.26392999291419983,1.144399642944336
1758447624191389700,6.4303896484375,0.4455653727054596,0.18780547380447388,0.8200315833091736
1758447624201362700,6.44036279296875,0.28166159987449646,0.687186598777771,0.3987010419368744
1758447624211335700,6.450335693359375,0.11465822905302048,1.1539726257324219,-0.03719690442085266
1758447624221307600,6.4603076171875,-0.046968597918748856,1.4920727014541626,-0.3680393397808075
1758447624231280600,6.47028076171875,-0.19497618079185486,1.6752771139144897,-0.5447027683258057
1758447624241253600,6.480253662109375,-0.32261306047439575,1.6875237226486206,-0.6048699021339417
1758447624251226600,6.4902265625,-0.40617960691452026,1.506700038909912,-0.6104854345321655
1758447624261198800,6.50019873046875,-0.42795318365097046,1.1762967109680176,-0.5767627358436584
1758447624271171600,6.510171630859375,-0.38742440938949585,0.820273220539093,-0.5733330845832825
1758447624281144600,6.52014453125,-0.3532640039920807,0.43399637937545776,-0.6417455077171326
1758447624291116800,6.53011669921875,-0.47149449586868286,0.01346487458795309,-0.8295058012008667
1758447624301089800,6.54008984375,-0.8515654802322388,-0.5634415149688721,-0.8183086514472961
1758447624311062500,6.5500625,-0.8076861500740051,-0.6787688732147217,-0.7801892161369324
1758447624321035500,6.560035400390625,-0.8903679251670837,-0.20033635199069977,-1.0454503297805786
1758447624331007700,6.5700078125,-1.1214096546173096,-0.010555768385529518,-1.120359182357788
1758447624340980700,6.579980712890625,-1.4468878507614136,0.36739522218704224,-0.9340541362762451
1758447624350953500,6.589953369140625,-1.5749988555908203,0.6582400798797607,-0.926531195640564
1758447624360926700,6.5999267578125,-1.5553011894226074,0.8195896148681641,-1.0061964988708496
1758447624370898700,6.609898681640625,-1.545923113822937,0.910611629486084,-0.9540526270866394
1758447624380871700,6.61987158203125,-1.4915542602539062,0.7148473262786865,-0.8064184188842773
1758447624390844700,6.6298447265625,-1.3284449577331543,0.15335600078105927,-0.49531060457229614
1758447624400816600,6.639816650390625,-1.180689811706543,-0.5584712624549866,-0.15224860608577728
1758447624410789600,6.64978955078125,-1.0181647539138794,-1.0966378450393677,0.2567999064922333
1758447624420763000,6.659762939453125,-0.87737637758255,-1.3085654973983765,0.5392420291900635
1758447624430735600,6.669735595703125,-0.6113119721412659,-1.2704554796218872,0.5077589154243469
1758447624440707600,6.67970751953125,-0.25540125370025635,-0.7361060976982117,0.21655584871768951
1758447624450680800,6.689680908203125,-0.08681996911764145,-0.2344466894865036,-0.10239443928003311
1758447624460653800,6.69965380859375,-0.004656183533370495,0.07375790178775787,-0.2512264847755432
1758447624470626600,6.70962646484375,0.009918497875332832,0.3255627155303955,-0.2936277389526367
1758447624480598800,6.719598876953125,-0.19325600564479828,0.395062118768692,-0.291156142950058
1758447624490571800,6.72957177734375,-0.35955312848091125,0.3052033483982086,-0.06613422185182571
1758447624500544800,6.739544677734375,-0.24617299437522888,0.3609105348587036,0.041712336242198944
1758447624510516700,6.749516845703125,-0.03558194264769554,0.604093074798584,-0.1269826740026474
1758447624520489700,6.75948974609375,0.36942821741104126,0.7598784565925598,-0.3477812707424164
1758447624530462700,6.769462646484375,1.251787781715393,1.0137964487075806,-0.5843059420585632
1758447624540435700,6.779435791015625,1.769529104232788,0.8284422159194946,-0.6491669416427612
1758447624550407700,6.78940771484375,1.8770554065704346,0.5705179572105408,-0.4762803316116333
1758447624560380700,6.799380615234375,2.413743734359741,-0.5233786702156067,-0.6258299946784973
1758447624570353700,6.809353759765625,2.8419198989868164,-1.7047024965286255,-0.8254573345184326
1758447624580327000,6.819326904296875,3.141815423965454,-2.708305597305298,-0.850214958190918
1758447624590298600,6.829298583984375,3.414813995361328,-3.1459646224975586,-0.7945548892021179
1758447624600271600,6.839271728515625,3.9374005794525146,-3.5642201900482178,-0.8615792989730835
1758447624610244900,6.849244873046875,4.518149375915527,-2.89263916015625,-1.0587172508239746
1758447624620216600,6.859216552734375,5.133538246154785,-1.3383500576019287,-1.156517744064331
1758447624630189600,6.869189453125,5.705869197845459,-0.09527730941772461,-0.9466092586517334
1758447624640162800,6.879162841796875,5.992888450622559,0.2767626941204071,-0.6259852051734924
1758447624650135800,6.8891357421875,5.950259685516357,-0.009121540933847427,-0.40892425179481506
1758447624660107500,6.899107421875,5.953946113586426,-0.09605671465396881,-0.12832510471343994
1758447624670080800,6.909080810546875,5.998386859893799,0.315973699092865,0.37338539958000183
1758447624680053800,6.9190537109375,5.683797359466553,0.9623327255249023,0.8383764624595642
1758447624690026800,6.92902685546875,5.097299575805664,1.421952247619629,1.1467853784561157
1758447624699998700,6.938998779296875,4.679602146148682,1.7660374641418457,1.2965900897979736
1758447624709971700,6.9489716796875,4.519406795501709,1.9674499034881592,1.306616187095642
1758447624719944700,6.95894482421875,4.516432762145996,2.0720832347869873,1.2890554666519165
1758447624729916700,6.968916748046875,4.560784339904785,2.1072216033935547,1.2351523637771606
1758447624739889700,6.9788896484375,4.566060543060303,1.9142569303512573,1.0432634353637695
1758447624749862700,6.988862548828125,4.568380355834961,1.1792644262313843,0.7381179332733154
1758447624759835600,6.998835693359375,4.567925453186035,0.3290604054927826,0.6491692066192627
1758447624769807600,7.0088076171875,4.540041446685791,-0.3262593746185303,0.7350574731826782
1758447624779780600,7.018780517578125,4.44802188873291,-0.811627209186554,0.8503929376602173
1758447624789753600,7.028753662109375,4.314420700073242,-1.0992475748062134,0.9105942249298096
1758447624799726800,7.038726806640625,4.215270042419434,-1.2706886529922485,0.8973024487495422
1758447624809698600,7.048698486328125,4.342488765716553,-1.8545305728912354,0.8656816482543945
1758447624819671600,7.058671630859375,6.063887596130371,-2.500810146331787,0.5696425437927246
1758447624829644800,7.068644775390625,8.70046329498291,-2.5878796577453613,-0.2023708075284958
1758447624839616800,7.07861669921875,8.876026153564453,-3.586017370223999,-1.328130841255188
1758447624849589500,7.088589599609375,6.6604228019714355,-5.261078834533691,-2.5173518657684326
1758447624859562800,7.098562744140625,3.040492534637451,-5.9994988441467285,-3.260751962661743
1758447624869535700,7.10853564453125,-0.3320682644844055,-5.769626617431641,-3.5503461360931396
1758447624879507700,7.1185078125,-1.6611560583114624,-5.964562892913818,-2.71612811088562
1758447624889480700,7.128480712890625,-1.6041595935821533,-6.339025020599365,-1.088249921798706
1758447624899453700,7.13845361328125,-1.0952506065368652,-5.82705545425415,0.4106444716453552
1758447624909425700,7.14842578125,-0.7076208591461182,-4.752933502197266,1.4714326858520508
1758447624919399000,7.15839892578125,-0.5868921875953674,-3.2962329387664795,2.024292469024658
1758447624929371600,7.16837158203125,-0.6053758859634399,-1.3417799472808838,2.0139825344085693
1758447624939344600,7.1783447265625,-0.5539050698280334,0.9749038815498352,1.438461184501648
1758447624949316900,7.18831689453125,-0.3898889720439911,2.9232935905456543,0.6556651592254639
1758447624959289900,7.198289794921875,-0.21018517017364502,3.990187168121338,0.10710132867097855
1758447624969262600,7.2082626953125,-0.08655217289924622,4.243844032287598,-0.18667304515838623
1758447624979235600,7.218235595703125,-0.03624977171421051,3.935793399810791,-0.30569666624069214
1758447624989207800,7.228207763671875,-0.026512987911701202,3.3271470069885254,-0.3099100589752197
1758447624999180800,7.238180908203125,-0.027336349710822105,2.6681418418884277,-0.2799396812915802
1758447625009153500,7.248153564453125,-0.03411569446325302,2.0618386268615723,-0.25290992856025696
1758447625019125800,7.258125732421875,-0.002991423010826111,1.565894365310669,-0.23319783806800842
1758447625029098800,7.2680986328125,0.010382439009845257,1.2246932983398438,-0.22506508231163025
1758447625039071700,7.27807177734375,0.008728615939617157,1.0417842864990234,-0.20350465178489685
1758447625049044700,7.288044677734375,0.015761490911245346,0.9522924423217773,-0.16046983003616333
1758447625059016700,7.2980166015625,0.014726896770298481,0.8489993810653687,-0.10128070414066315
1758447625068989400,7.307989501953125,0.011877048760652542,0.7247224450111389,-0.07172760367393494
1758447625078962700,7.317962646484375,0.03161558881402016,0.6056486964225769,-0.04681345820426941
1758447625088934700,7.3279345703125,0.07560248672962189,0.46681222319602966,0.03272024914622307
1758447625098907600,7.33790771484375,0.10943746566772461,0.29438287019729614,0.11768877506256104
1758447625108880600,7.347880615234375,0.09159188717603683,0.13508588075637817,0.2127005159854889
1758447625118853600,7.357853515625,0.05357222259044647,-0.07831990718841553,0.3065406382083893
1758447625128825600,7.36782568359375,0.022769037634134293,-0.31875357031822205,0.3611900508403778
1758447625138798600,7.377798583984375,0.011285851709544659,-0.5209274888038635,0.367172509431839
1758447625148771600,7.387771484375,0.018935782834887505,-0.6536809802055359,0.33938509225845337
1758447625158743600,7.39774365234375,0.019279103726148605,-0.7177789211273193,0.2991770803928375
1758447625168716500,7.407716552734375,0.010877097956836224,-0.7340516448020935,0.2694482207298279
1758447625178689500,7.417689453125,0.0009434283711016178,-0.7076652646064758,0.26438650488853455
1758447625188662500,7.42766259765625,-0.007029543165117502,-0.6364454030990601,0.27348971366882324
1758447625198634800,7.437634765625,-0.013034242205321789,-0.5124233365058899,0.2744036018848419
1758447625208607700,7.447607666015625,-0.011648333631455898,-0.34645143151283264,0.2429777979850769
1758447625218580500,7.45758056640625,-0.009021829813718796,-0.1670113205909729,0.17681856453418732
1758447625228553500,7.467553466796875,-0.003472867887467146,0.0021678549237549305,0.08726070821285248
1758447625238525700,7.477525634765625,0.007927482016384602,0.13394761085510254,-0.0012054520193487406
1758447625248498700,7.487498779296875,0.01738995872437954,0.19772206246852875,-0.06600601971149445
1758447625258471400,7.497471435546875,0.024551700800657272,0.21132157742977142,-0.09539385139942169
1758447625268443600,7.507443603515625,0.02507900632917881,0.20138771831989288,-0.10255535691976547
1758447625278416600,7.517416748046875,0.02577051892876625,0.20592616498470306,-0.09825056791305542
1758447625288389600,7.5273896484375,0.020005308091640472,0.22697125375270844,-0.08715184777975082
1758447625298362400,7.5373623046875,0.015250016003847122,0.2572931945323944,-0.07606299966573715
1758447625308334600,7.54733447265625,0.007022712379693985,0.282540500164032,-0.06569238007068634
1758447625318307600,7.5573076171875,0.0007417567539960146,0.30398330092430115,-0.05503126606345177
1758447625328280600,7.567280517578125,-0.004959538578987122,0.3110311031341553,-0.048455122858285904
1758447625338252500,7.57725244140625,-0.008722733706235886,0.2986256182193756,-0.04272312670946121
1758447625348225500,7.5872255859375,-0.00797092355787754,0.26690682768821716,-0.036007702350616455
1758447625358198500,7.597198486328125,-0.0025535444729030132,0.21947674453258514,-0.02693190425634384
1758447625368171800,7.607171875,0.0011772778816521168,0.17412124574184418,-0.010118570178747177
1758447625378143500,7.6171435546875,0.008586057461798191,0.13206076622009277,0.0070889731869101524
1758447625388116500,7.627116455078125,0.005305309314280748,0.08773858100175858,0.01818237081170082
1758447625398089700,7.63708984375,0.005255101714283228,0.04323679953813553,0.017853017896413803
1758447625408061400,7.6470615234375,0.012167336419224739,0.018909355625510216,0.009125307202339172
1758447625418034400,7.657034423828125,0.022504331544041634,0.012386946938931942,0.0037722396664321423
1758447625428007700,7.667007568359375,0.0175551138818264,-0.005143577232956886,-0.000019568949937820435
1758447625437980700,7.676980712890625,0.025837350636720657,-0.017621297389268875,0.004675023257732391
1758447625447952400,7.686952392578125,0.047367677092552185,-0.030668389052152634,0.004723226651549339
1758447625457925600,7.696925537109375,0.06547747552394867,-0.05882693827152252,-0.018097957596182823
1758447625467898600,7.706898681640625,0.028264328837394714,-0.1128092110157013,-0.05588235333561897
1758447625477871600,7.71687158203125,-0.00040450808592140675,-0.16653317213058472,-0.08521763980388641
1758447625487843600,7.726843505859375,0.04814331978559494,-0.1637570858001709,-0.06926290690898895
1758447625497816600,7.736816650390625,0.1344924122095108,-0.126961812376976,-0.025913354009389877
1758447625507789600,7.74678955078125,0.17821139097213745,-0.09151248633861542,0.012265723198652267
1758447625517761800,7.75676171875,0.18800854682922363,-0.05276333913207054,0.05475889891386032
1758447625527734500,7.766734619140625,0.18251709640026093,-0.05991312488913536,0.0895557627081871
1758447625537707500,7.77670751953125,0.1338462233543396,-0.13085581362247467,0.09932277351617813
1758447625547679700,7.7866796875,0.060082510113716125,-0.22928065061569214,0.08824535459280014
1758447625557652700,7.79665283203125,0.01488336082547903,-0.27495458722114563,0.08339187502861023
1758447625567625500,7.80662548828125,-0.012203117832541466,-0.22673167288303375,0.09764138609170914
1758447625577598500,7.816598388671875,-0.055695705115795135,-0.11685318499803543,0.13172996044158936
1758447625587570700,7.82657080078125,-0.09999819099903107,0.006196043454110622,0.18855781853199005
1758447625597543400,7.83654345703125,-0.12290317565202713,0.10119590908288956,0.25421321392059326
1758447625607516400,7.846516357421875,-0.13595931231975555,0.16204115748405457,0.30056872963905334
1758447625617489700,7.85648974609375,-0.1366460621356964,0.1973547786474228,0.31278783082962036
1758447625627461600,7.866461669921875,-0.12219841778278351,0.2219107300043106,0.28680628538131714
1758447625637434400,7.876434326171875,-0.09499192982912064,0.2287697046995163,0.2195013165473938
1758447625647407600,7.88640771484375,-0.05906321853399277,0.21671012043952942,0.11875927448272705
1758447625657379600,7.896379638671875,-0.016166124492883682,0.18282394111156464,-0.0013282347936183214
1758447625667352600,7.9063525390625,0.023040931671857834,0.13325372338294983,-0.11822875589132309
1758447625677325600,7.91632568359375,0.04600294679403305,0.08667929470539093,-0.21113631129264832
1758447625687298600,7.926298583984375,0.05838664621114731,0.06174224987626076,-0.26858893036842346
1758447625697270500,7.9362705078125,0.07344527542591095,0.055047858506441116,-0.29511725902557373
1758447625707243800,7.946243896484375,0.09360407292842865,0.06395906209945679,-0.2922668755054474
1758447625717216500,7.956216552734375,0.10529820621013641,0.07911744713783264,-0.27536335587501526
1758447625727188500,7.9661884765625,0.09969811141490936,0.07350430637598038,-0.25340133905410767
1758447625737161700,7.97616162109375,0.07420854270458221,0.0666985809803009,-0.22067378461360931
1758447625747134700,7.986134765625,0.04356568306684494,0.06680644303560257,-0.1702529639005661
1758447625757107500,7.996107421875,0.014281774871051311,0.06603599339723587,-0.11041063815355301
1758447625767079700,8.00607958984375,-0.015011399984359741,0.06316404044628143,-0.0536285825073719
1758447625777052700,8.016052734375,-0.0436369851231575,0.05321149900555611,0.0039728302508592606
1758447625787025700,8.026025634765626,-0.06951545923948288,0.04390241950750351,0.05643843486905098
1758447625796998400,8.035998291015625,-0.08730568736791611,0.03431843966245651,0.10952338576316833
1758447625806970600,8.045970703125,-0.09528584778308868,0.018545866012573242,0.15264661610126495
1758447625816943600,8.055943603515624,-0.10203548520803452,-0.015651147812604904,0.18584869801998138
1758447625826916600,8.06591650390625,-0.0935346707701683,-0.06932848691940308,0.21643617749214172
1758447625836889600,8.0758896484375,-0.07718313485383987,-0.14731934666633606,0.24393291771411896
1758447625846861600,8.085861572265625,-0.05780757591128349,-0.2500084638595581,0.25867989659309387
1758447625856834600,8.09583447265625,-0.03182150796055794,-0.351635605096817,0.25005391240119934
1758447625866807800,8.105807861328126,-0.005067391321063042,-0.42189404368400574,0.20844709873199463
1758447625876780500,8.115780517578125,0.018136460334062576,-0.4398173391819,0.1398354023694992
1758447625886752500,8.12575244140625,0.040624991059303284,-0.40388837456703186,0.05918397754430771
1758447625896725800,8.135725830078124,0.05022849515080452,-0.3302762508392334,-0.012055658735334873
1758447625906698800,8.14569873046875,0.05425146967172623,-0.25261685252189636,-0.05843833461403847
1758447625916670500,8.15567041015625,0.05280676111578941,-0.19317305088043213,-0.07663854211568832
1758447625926643700,8.165643798828125,0.05050419270992279,-0.14469046890735626,-0.0719580352306366
1758447625936616700,8.17561669921875,0.046572986990213394,-0.08557692915201187,-0.06977391988039017
1758447625946589700,8.185589599609376,0.032799918204545975,-0.00781688466668129,-0.08346922695636749
1758447625956561700,8.195561767578125,0.01816444844007492,0.07511124014854431,-0.10691845417022705
1758447625966534700,8.20553466796875,0.005243324674665928,0.14595851302146912,-0.1230580136179924
1758447625976507600,8.215507568359374,-0.004135760944336653,0.19393840432167053,-0.1287047415971756
1758447625986480600,8.225480712890626,-0.008511601015925407,0.21530601382255554,-0.12155520915985107
1758447625996452600,8.23545263671875,-0.01369644794613123,0.21524381637573242,-0.09974262118339539
1758447626006425600,8.245425537109375,-0.015703139826655388,0.2054593712091446,-0.0739176794886589
1758447626016398600,8.255398681640624,-0.015880389139056206,0.19490554928779602,-0.04433175176382065
1758447626026371600,8.26537158203125,-0.013292862102389336,0.1792248636484146,-0.02022428624331951
1758447626036343600,8.275343505859375,-0.013361510820686817,0.15366317331790924,0.0023747365921735764
1758447626046316500,8.285316650390625,-0.015039567835628986,0.1065012514591217,0.027597801759839058
1758447626056290000,8.2952900390625,-0.008929512463510036,0.037239499390125275,0.05427071079611778
1758447626066263000,8.305262939453126,-0.004477239213883877,-0.03970428556203842,0.07361165434122086
1758447626076235000,8.315235107421875,-0.0034332762006670237,-0.09777245670557022,0.08202310651540756
1758447626086208000,8.3252080078125,-0.0021584208589047194,-0.12728826701641083,0.07528610527515411
1758447626096181200,8.33518115234375,0.0011860944796353579,-0.12662777304649353,0.06482821702957153
1758447626106153000,8.345153076171876,0.0035794773139059544,-0.10923545807600021,0.05781398341059685
1758447626116126000,8.3551259765625,0.009061206132173538,-0.09120023250579834,0.056743986904621124
1758447626126099200,8.36509912109375,0.010446849279105663,-0.08211912214756012,0.05352821946144104
1758447626136072200,8.375072265625,0.010440990328788757,-0.07893850654363632,0.05034494400024414
1758447626146044000,8.3850439453125,0.008863067254424095,-0.07943491637706757,0.03318033739924431
1758447626156017200,8.39501708984375,0.008753610774874687,-0.07752490043640137,0.010696865618228912
1758447626165990100,8.404990234375,0.011916647665202618,-0.07604711502790451,-0.014613017439842224
1758447626175963100,8.414963134765625,0.015011629089713097,-0.07797101140022278,-0.02574269473552704
1758447626185935000,8.42493505859375,0.015782348811626434,-0.08277029544115067,-0.02155487611889839
1758447626195908000,8.434908203125,0.014063714072108269,-0.08581053465604782,-0.00872850976884365
1758447626205881000,8.444881103515625,0.008630598895251751,-0.0848105177283287,-0.0026210821233689785
1758447626215854000,8.45485400390625,0.00909043475985527,-0.07525087147951126,0.00018766755238175392
1758447626225826000,8.464825927734376,0.012834306806325912,-0.06424322724342346,-0.0009194083977490664
1758447626235799000,8.474799072265625,0.017501091584563255,-0.05956415832042694,-0.0005789885763078928
1758447626245772000,8.48477197265625,0.01939007081091404,-0.06789372861385345,0.00016057118773460388
1758447626255745300,8.494745361328125,0.01997835375368595,-0.08648458123207092,0.004477828741073608
1758447626265717000,8.504717041015626,0.01689254865050316,-0.10470592975616455,0.0000852108933031559
1758447626275690000,8.51468994140625,0.012318754568696022,-0.10930831730365753,-0.01464083231985569
1758447626285663200,8.524663330078125,0.004407035652548075,-0.10496017336845398,-0.029729770496487617
1758447626295635000,8.534635009765625,-0.0010007594246417284,-0.10044711828231812,-0.0443088561296463
1758447626305608000,8.54460791015625,-0.003445274895057082,-0.10322772711515427,-0.05546989664435387
1758447626315581200,8.554581298828126,-0.0015667318366467953,-0.10463466495275497,-0.06095411628484726
1758447626325554200,8.56455419921875,-0.003212032839655876,-0.10059864819049835,-0.05988486111164093
1758447626335526000,8.57452587890625,-0.007337919436395168,-0.09112022072076797,-0.05508911609649658
1758447626345499100,8.5844990234375,-0.008568033576011658,-0.07578734308481216,-0.04474779590964317
1758447626355472100,8.59447216796875,-0.0064873117953538895,-0.060568634420633316,-0.03049282170832157
1758447626365445000,8.604445068359375,-0.002981526078656316,-0.048294391483068466,-0.02116350270807743
1758447626375417000,8.6144169921875,0.00261933752335608,-0.04760349541902542,-0.018240265548229218
1758447626385390000,8.62439013671875,0.004080081358551979,-0.056540798395872116,-0.015435691922903061
1758447626395363000,8.634363037109376,0.006903118919581175,-0.07176171243190765,-0.01059810258448124
1758447626405336000,8.644336181640625,0.007766249589622021,-0.08481839299201965,-0.00634556682780385
1758447626415308000,8.65430810546875,0.006795199122279882,-0.09106814861297607,0.0005331439897418022
1758447626425281000,8.664281005859374,0.0073161134496331215,-0.09032246470451355,0.00921504944562912
1758447626435254000,8.67425390625,0.0035460249055176973,-0.08747158944606781,0.01944790408015251
1758447626445226000,8.68422607421875,0.000825872179120779,-0.08051887154579163,0.02322693169116974
1758447626455199000,8.694198974609375,-0.0005410357844084501,-0.07407078891992569,0.024363651871681213
1758447626465172000,8.704171875,0.0023317160084843636,-0.06150572746992111,0.01603834331035614
1758447626475145200,8.714145263671876,0.001676854444667697,-0.04035104811191559,0.006008074153214693
1758447626485117000,8.724116943359375,-0.0009655337780714035,-0.01521986536681652,-0.0034991446882486343
1758447626495090000,8.73408984375,-0.002080045873299241,0.0066191889345645905,-0.015871800482273102
1758447626505063200,8.744063232421874,-0.000515438849106431,0.024401914328336716,-0.018160788342356682
1758447626515036200,8.7540361328125,0.0008817478083074093,0.028061138466000557,-0.015969187021255493
1758447626525008000,8.7640078125,0.002767798490822315,0.022410176694393158,-0.015013111755251884
1758447626534981000,8.773981201171875,0.006379126571118832,0.014383327215909958,-0.02004772052168846
1758447626544954000,8.7839541015625,0.006757028866559267,0.010764624923467636,-0.022603824734687805
1758447626554927000,8.793927001953126,0.008345220237970352,0.010709991678595543,-0.02623565122485161
1758447626564899000,8.803899169921875,0.008890902623534203,0.0067045981995761395,-0.02210349217057228
1758447626574872000,8.8138720703125,0.007875890471041203,-0.0018882759613916278,-0.01270688883960247
1758447626584845000,8.823844970703124,0.008709725923836231,-0.009286005049943924,-0.0004749894142150879
1758447626594817300,8.8338173828125,0.009084594435989857,-0.01743623986840248,0.014386441558599472
1758447626604790000,8.8437900390625,0.008853165432810783,-0.01977156661450863,0.02448008768260479
1758447626614763000,8.853762939453125,0.007690021302551031,-0.022770320996642113,0.028203120455145836
1758447626624736000,8.863736083984374,0.008916406892240047,-0.03240111097693443,0.024123158305883408
1758447626634708200,8.873708251953126,0.005697388201951981,-0.04625958949327469,0.017467012628912926
1758447626644681000,8.883680908203125,0.006485417485237122,-0.05398568511009216,0.011919114738702774
1758447626654654000,8.893654052734375,0.0024442372377961874,-0.05276565998792648,0.007110034581273794
1758447626664626200,8.903626220703124,0.0014663245528936386,-0.04570721834897995,0.007616035174578428
1758447626674599200,8.91359912109375,0.0009737329091876745,-0.03980774059891701,0.006366298068314791
1758447626684572000,8.923572021484375,0.0011987700127065182,-0.037873752415180206,0.005769217852503061
1758447626694545200,8.933545166015625,0.00027791131287813187,-0.03372470289468765,0.002756883390247822
1758447626704517000,8.94351708984375,0.0028539870399981737,-0.02184194326400757,-0.004605425056070089
1758447626714489900,8.95348974609375,0.0022526620887219906,0.003025659127160907,-0.007686571218073368
1758447626724463000,8.963463134765625,0.0028044693171977997,0.03850642219185829,-0.009595525451004505
1758447626734436000,8.97343603515625,0.004481273237615824,0.061068374663591385,-0.011842867359519005
1758447626744408000,8.983407958984374,0.004388062749058008,0.06037728488445282,-0.014241043478250504
1758447626754381000,8.993381103515626,0.0038257744163274765,0.04851264879107475,-0.01930767297744751
1758447626764354000,9.00335400390625,0.0011940386611968279,0.029612727463245392,-0.01829327456653118
1758447626774326000,9.013325927734375,-0.0018788098823279142,0.013203619047999382,-0.016596391797065735
1758447626784299000,9.023299072265624,-0.004229049198329449,0.00021298532374203205,-0.01100561860948801
1758447626794272000,9.03327197265625,-0.004301024600863457,-0.003651039209216833,0.0006024749018251896
1758447626804245000,9.043244873046875,-0.001690061530098319,-0.0041176252998411655,0.015024557709693909
1758447626814217200,9.05321728515625,0.00015736278146505356,-0.01579679176211357,0.02639864757657051
1758447626824190200,9.063190185546874,-0.00043891905806958675,-0.03984859585762024,0.03223443403840065
1758447626834163000,9.073162841796876,0.002817674772813916,-0.06525842845439911,0.026068245992064476
1758447626844136000,9.083135986328125,0.0036104978062212467,-0.07647859305143356,0.016680337488651276
1758447626854108200,9.093108154296875,-0.0007543130777776241,-0.07037585228681564,0.007349103689193726
1758447626864081200,9.1030810546875,-0.0030446313321590424,-0.053668245673179626,0.006824194453656673
1758447626874054000,9.113053955078126,-0.001597329042851925,-0.0373036228120327,0.007700706832110882
1758447626884026000,9.123026123046875,0.0011031164322048426,-0.02876259572803974,0.009867721237242222
1758447626893999000,9.1329990234375,0.0037109381519258022,-0.018794195726513863,0.0064805555157363415
1758447626903972000,9.14297216796875,0.005908312276005745,-0.005760686472058296,0.002901000902056694
1758447626913944800,9.15294482421875,0.005970998667180538,0.0080989059060812,-0.007104821503162384
1758447626923917000,9.1629169921875,0.002360285259783268,0.02074545808136463,-0.019811028614640236
1758447626933890000,9.17289013671875,0.002166109625250101,0.03252150118350983,-0.029552189633250237
1758447626943863000,9.182863037109374,-0.00013566063717007637,0.04525567218661308,-0.03855873644351959
1758447626953835000,9.1928349609375,-0.0038439948111772537,0.056666288524866104,-0.04089345037937164
1758447626963808000,9.20280810546875,-0.005813669413328171,0.06665819883346558,-0.04134592413902283
1758447626973781000,9.212781005859375,-0.011066362261772156,0.07026355713605881,-0.033009231090545654
1758447626983754200,9.222754150390625,-0.012532433494925499,0.07176637649536133,-0.024236511439085007
1758447626993726000,9.232725830078126,-0.015313024632632732,0.07201119512319565,-0.012869207188487053
1758447627003699000,9.242698974609375,-0.017959408462047577,0.06499695777893066,-0.0020352015271782875
1758447627013672200,9.252672119140625,-0.01821853220462799,0.05486283078789711,0.0070967781357467175
1758447627023644000,9.262643798828124,-0.013917573727667332,0.037576258182525635,0.018273547291755676
1758447627033617000,9.272616943359376,-0.010119977407157421,0.018699461594223976,0.02214808762073517
1758447627043590100,9.282590087890625,-0.002359259407967329,0.0020453836768865585,0.018029775470495224
1758447627053562000,9.29256201171875,0.004069674294441938,-0.009692116640508175,0.010699126869440079
1758447627063534300,9.302534423828124,0.013319632038474083,-0.01643231138586998,0.0035320278257131577
1758447627073507000,9.312507080078126,0.011910513043403625,-0.014273405075073242,0.003778928890824318
1758447627083480000,9.32247998046875,0.013177644461393356,-0.009234171360731125,0.00430410448461771
1758447627093452300,9.332452392578125,0.012304895557463169,-0.006608486175537109,0.006128786131739616
1758447627103425300,9.34242529296875,0.008831334300339222,-0.00836217775940895,0.004375360906124115
1758447627113398000,9.35239794921875,0.0014473849441856146,-0.006098214536905289,0.0019780066795647144
1758447627123371000,9.36237109375,-0.0023228523787111044,-0.00657199090346694,0.0006927652284502983
1758447627133343200,9.37234326171875,-0.006194971036165953,-0.005151956342160702,0.0025836843997240067
1758447627143316200,9.382316162109374,-0.0093819759786129,-0.00008795538451522589,0.003574912901967764
1758447627153289000,9.3922890625,-0.010978643782436848,0.011907219886779785,0.0034423465840518475
1758447627163261200,9.40226123046875,-0.010452935472130775,0.018809068948030472,0.0028252918273210526
1758447627173234200,9.412234130859375,-0.007009626366198063,0.013325728476047516,-0.0017972039058804512
1758447627183207200,9.422207275390624,-0.003228203859180212,-0.003524890635162592,-0.012747323140501976
1758447627193180200,9.43218017578125,-0.00010348507203161716,-0.018561972305178642,-0.027124550193548203
1758447627203152100,9.442152099609375,0.004526420496404171,-0.01879659667611122,-0.039588410407304764
1758447627213125000,9.452125,0.005720505025237799,-0.006810958497226238,-0.04553162306547165
1758447627223098400,9.462098388671874,0.00613569188863039,0.005097099579870701,-0.04410390183329582
1758447627233070000,9.472070068359375,0.0062795476987957954,0.0095898462459445,-0.03653867170214653
1758447627243043000,9.48204296875,0.000633646035566926,0.009394103661179543,-0.02648017928004265
1758447627253016300,9.492016357421875,-0.0008138676639646292,0.005121215246617794,-0.018827013671398163
1758447627262989300,9.5019892578125,0.00022902642376720905,-0.002251213416457176,-0.016367850825190544
1758447627272961000,9.5119609375,-0.0011180003639310598,-0.008099248632788658,-0.008749345317482948
1758447627282934300,9.521934326171875,-0.0008567443583160639,-0.014294293709099293,0.003202388994395733
1758447627292907300,9.5319072265625,0.0007101644296199083,-0.0265632513910532,0.017782580107450485
1758447627302879000,9.54187890625,0.00462527759373188,-0.0410471186041832,0.031199321150779724
1758447627312852200,9.551852294921876,0.006022381596267223,-0.057697273790836334,0.03273236006498337
1758447627322825200,9.5618251953125,0.007662888616323471,-0.06266060471534729,0.028730427846312523
1758447627332798200,9.571798095703125,0.0087767718359828,-0.05259495973587036,0.018792234361171722
1758447627342770200,9.581770263671874,0.013361935503780842,-0.030100572854280472,0.01420413888990879
1758447627352743200,9.5917431640625,0.014619363471865654,-0.00511643011122942,0.015783851966261864
1758447627362716200,9.601716064453125,0.016537105664610863,0.012527544982731342,0.02045823261141777
1758447627372688400,9.6116884765625,0.015606949105858803,0.021954448893666267,0.02406943589448929
1758447627382661000,9.6216611328125,0.01537285652011633,0.02966829389333725,0.017665065824985504
1758447627392634000,9.631634033203126,0.01503533311188221,0.033215709030628204,0.005351582076400518
1758447627402607000,9.641607177734375,0.011339664459228516,0.043138645589351654,-0.005905067082494497
1758447627412579300,9.651579345703125,0.008733456954360008,0.05961577221751213,-0.008532782085239887
1758447627422552000,9.661552001953124,0.0059611061587929726,0.06776504963636398,-0.004179578740149736
1758447627432525000,9.671525146484376,0.0010308350902050734,0.06523622572422028,0.0019395402632653713
1758447627442497300,9.681497314453125,-0.004559939261525869,0.051997922360897064,0.0032215858809649944
1758447627452470000,9.691469970703125,-0.004882708191871643,0.04600115120410919,-0.0014511842746287584
1758447627462443000,9.701443115234374,-0.0035404753871262074,0.04610421881079674,-0.01012083888053894
1758447627472416300,9.711416259765626,-0.003825956489890814,0.04598270729184151,-0.015265410766005516
1758447627482388200,9.72138818359375,-0.00696316035464406,0.04263804107904434,-0.0065235840156674385
1758447627492361000,9.73136083984375,-0.011246491223573685,0.030765054747462273,0.006368344184011221
1758447627502334200,9.741334228515624,-0.01134076714515686,0.009216086007654667,0.017187435179948807
1758447627512306200,9.75130615234375,-0.009781520813703537,-0.0104607455432415,0.01657850667834282
1758447627522279200,9.761279052734375,-0.00787309929728508,-0.016551926732063293,0.010284123942255974
1758447627532252200,9.771252197265625,-0.00659128837287426,-0.009241092950105667,-0.0008248707745224237
1758447627542224100,9.78122412109375,-0.0064261723309755325,-0.0008992735529318452,-0.0077208601869642735
1758447627552197000,9.791197021484376,-0.004000448156148195,0.0008656410500407219,-0.009506167843937874
1758447627562170400,9.80117041015625,-0.003797515295445919,-0.005329670384526253,-0.00939165148884058
1758447627572143000,9.81114306640625,-0.0060503557324409485,-0.015818841755390167,-0.007653761655092239
1758447627582115000,9.821114990234374,-0.010774803347885609,-0.019130215048789978,-0.008888935670256615
1758447627592088300,9.83108837890625,-0.01332375593483448,-0.005455268546938896,-0.009036977775394917
1758447627602061300,9.841061279296875,-0.016835667192935944,0.021146515384316444,-0.010148048400878906
1758447627612033000,9.851032958984375,-0.02031533233821392,0.056775614619255066,-0.009691854938864708
1758447627622006300,9.86100634765625,-0.014382341876626015,0.08927389979362488,-0.007169574499130249
1758447627631979300,9.870979248046876,-0.009188900701701641,0.1005520448088646,-0.006182752549648285
1758447627641952300,9.8809521484375,-0.0017296532168984413,0.09390906244516373,-0.005546523258090019
1758447627651924200,9.89092431640625,0.006327740848064423,0.07586561143398285,-0.00451588025316596
1758447627661897200,9.900897216796874,0.014785141684114933,0.05936333164572716,-0.004400032572448254
1758447627671870200,9.9108701171875,0.02055598795413971,0.04290192201733589,-0.0042613111436367035
1758447627681842200,9.92084228515625,0.02568044140934944,0.030064420774579048,-0.00005325069651007652
1758447627691815200,9.930815185546875,0.030471935868263245,0.011561725288629532,0.013991761952638626
1758447627701788200,9.9407880859375,0.029019981622695923,-0.01956823095679283,0.02942158654332161
1758447627711760400,9.950760498046876,0.025487234815955162,-0.059646524488925934,0.04273050278425217
1758447627721733000,9.960733154296875,0.021217389032244682,-0.08658546209335327,0.04995246231555939
1758447627731706000,9.9707060546875,0.015648389235138893,-0.08937657624483109,0.05077994242310524
1758447627741679000,9.98067919921875,0.011535136960446835,-0.06373538821935654,0.050032392144203186
1758447627751651300,9.9906513671875,0.012657583691179752,-0.03980014845728874,0.049049846827983856
1758447627761624000,10.0006240234375,0.013978777453303337,-0.033793121576309204,0.04087580740451813
1758447627771597000,10.01059716796875,0.011987458914518356,-0.03732531890273094,0.030007626861333847
1758447627781569300,10.0205693359375,0.01158532127737999,-0.033912744373083115,0.013946900144219398
1758447627791542300,10.030542236328126,0.008560684509575367,-0.010242680087685585,-0.011883590370416641
1758447627801515000,10.040514892578125,0.006566509138792753,0.0259451512247324,-0.0328754261136055
1758447627811487200,10.0504873046875,0.004060005769133568,0.0625525489449501,-0.03808780014514923
1758447627821460200,10.060460205078124,-0.0010625848080962896,0.08420778065919876,-0.03335136920213699
1758447627831433200,10.07043310546875,-0.0027051796205341816,0.08801049739122391,-0.021357033401727676
1758447627841406200,10.08040625,-0.004505476448684931,0.07556474953889847,-0.010415168479084969
1758447627851378200,10.090378173828125,-0.00485034566372633,0.05380238592624664,-0.003757944330573082
1758447627861351200,10.10035107421875,-0.00587353203445673,0.032753027975559235,-0.0022359478753060102
1758447627871324200,10.11032421875,-0.004058619029819965,0.02190072275698185,-0.00005227141082286835
1758447627881296100,10.120296142578125,-0.0013275472447276115,0.018737951293587685,0.002263613510876894
1758447627891269000,10.13026904296875,0.0013402148615568876,0.01170579344034195,0.0050696260295808315
1758447627901242400,10.140242431640624,0.004284871742129326,-0.006051898468285799,0.005913848523050547
1758447627911214000,10.150214111328125,0.0037496834993362427,-0.025758789852261543,0.0009027780033648014
1758447627921187000,10.16018701171875,0.001995459431782365,-0.041172366589307785,-0.0019414781127125025
1758447627931160300,10.170160400390625,0.000002882210537791252,-0.050735242664813995,-0.0028882320038974285
1758447627941133300,10.18013330078125,-0.0025340451393276453,-0.04954880475997925,0.00046442169696092606
1758447627951105000,10.19010498046875,-0.0013769033830612898,-0.040339186787605286,0.012031618505716324
1758447627961078300,10.200078369140625,-0.0037867978680878878,-0.02640686184167862,0.026413753628730774
1758447627971051300,10.21005126953125,-0.0017718907911330462,-0.027034297585487366,0.045274000614881516
1758447627981023000,10.22002294921875,-0.0013385943602770567,-0.04619520902633667,0.0541713573038578
1758447627990996200,10.229996337890626,0.00012700329534709454,-0.0739687979221344,0.05425816401839256
1758447628000969200,10.23996923828125,-0.000994454137980938,-0.09195099025964737,0.04414241388440132
1758447628010941200,10.249941162109375,0.00252122082747519,-0.09867941588163376,0.026878828182816505
1758447628020914200,10.2599140625,0.006759641692042351,-0.08238060027360916,0.015331629663705826
1758447628030887200,10.26988720703125,0.010641207918524742,-0.051000505685806274,0.007077304180711508
1758447628040860200,10.279860107421875,0.014339806511998177,-0.011875207535922527,0.004569937940686941
1758447628050833000,10.2898330078125,0.011412939988076687,0.018507812172174454,-0.001073144841939211
1758447628060806100,10.29980615234375,0.00992769468575716,0.039204034954309464,-0.010780899785459042
1758447628070779000,10.30977880859375,0.005376182496547699,0.05534496158361435,-0.02811986394226551
1758447628080750800,10.319750732421875,0.005888841114938259,0.0747612714767456,-0.04852819815278053
1758447628090724000,10.32972412109375,0.0037401816807687283,0.09685379266738892,-0.058826372027397156
1758447628100697000,10.339697021484374,-0.0037853787653148174,0.11687836796045303,-0.05795232206583023
1758447628110668800,10.349668701171876,-0.007284687831997871,0.12679022550582886,-0.04813488572835922
1758447628120642000,10.35964208984375,-0.011377966031432152,0.12598861753940582,-0.034433454275131226
1758447628130615000,10.369614990234375,-0.014818474650382996,0.11732596158981323,-0.0209348164498806
1758447628140588000,10.379588134765624,-0.016689078882336617,0.10577663034200668,-0.009064042009413242
1758447628150560000,10.38956005859375,-0.014416078105568886,0.07988104224205017,0.0031269658356904984
1758447628160533000,10.399532958984375,-0.010942252352833748,0.0542324036359787,0.018373828381299973
1758447628170506000,10.409506103515625,-0.005785766057670116,0.029390890151262283,0.03186071664094925
1758447628180478000,10.41947802734375,-0.0012717086356133223,0.003431728109717369,0.04378475621342659
1758447628190451000,10.429450927734376,0.0030787584837526083,-0.02933998592197895,0.043549757450819016
1758447628200424000,10.439423828125,0.0053086234256625175,-0.06309635192155838,0.0382215715944767
1758447628210396000,10.44939599609375,0.00482441671192646,-0.08542867749929428,0.025156134739518166
1758447628220369000,10.459368896484374,0.006003930699080229,-0.08228694647550583,0.008002180606126785
1758447628230342000,10.469341796875,0.006616129539906979,-0.05807533860206604,-0.005521338898688555
1758447628240314000,10.479314208984375,0.0083101661875844,-0.020862720906734467,-0.010906516574323177
1758447628250286800,10.489286865234375,0.00838738214224577,0.010598478838801384,-0.004733934998512268
1758447628260259800,10.499259765625,0.01167159155011177,0.037380024790763855,0.00016787927597761154
1758447628270232800,10.50923291015625,0.01531057246029377,0.05277208238840103,-0.008300352841615677
1758447628280205000,10.519205078125,0.015812577679753304,0.06002626568078995,-0.023946424946188927
1758447628290177800,10.529177734375,0.014614430256187916,0.06020103767514229,-0.030260100960731506
1758447628300150800,10.53915087890625,0.007372763007879257,0.05532186105847359,-0.02854582481086254
1758447628310123000,10.549123046875,0.0007768389768898487,0.048766039311885834,-0.016323089599609375
1758447628320096000,10.559095947265625,-0.005363345146179199,0.04494280368089676,0.007517262361943722
1758447628330068700,10.56906884765625,-0.010040206834673882,0.03744589164853096,0.030471354722976685
1758447628340041000,10.579041015625,-0.011071116663515568,0.011456637643277645,0.046827156096696854
1758447628350014000,10.589013916015626,-0.008258935064077377,-0.02889828011393547,0.04963938146829605
1758447628359987000,10.598987060546875,-0.005182984750717878,-0.05825776606798172,0.039197392761707306
1758447628369959000,10.608958984375,-0.003459536237642169,-0.06641419231891632,0.023891480639576912
1758447628379932000,10.618931884765624,-0.00014203623868525028,-0.0567125640809536,0.0025758068077266216
1758447628389905000,10.62890478515625,0.0024014636874198914,-0.04310392588376999,-0.014296078123152256
1758447628399876900,10.638876953125,0.0027942797169089317,-0.03995393589138985,-0.023877065628767014
1758447628409849900,10.648849853515625,0.0027849795296788216,-0.044038161635398865,-0.029147200286388397
1758447628419822800,10.65882275390625,-0.0022436012513935566,-0.047160983085632324,-0.03157759830355644
1758447628429796000,10.668796142578126,-0.007185501046478748,-0.029621973633766174,-0.02603589929640293
1758447628439767800,10.678767822265625,-0.009528549388051033,0.005855059716850519,-0.01977880299091339
1758447628449740800,10.68874072265625,-0.014241044409573078,0.0447910837829113,-0.016773007810115814
1758447628459714000,10.698714111328124,-0.016492748633027077,0.07005143910646439,-0.012423001229763031
1758447628469686000,10.70868603515625,-0.015708310529589653,0.07481426745653152,-0.009044709615409374
1758447628479658800,10.71865869140625,-0.01514584943652153,0.05846032500267029,-0.005613226443529129
1758447628489632000,10.728632080078125,-0.00929190218448639,0.029856830835342407,-0.005556389689445496
1758447628499604000,10.73860400390625,-0.00448250025510788,0.001592968706972897,-0.008877085521817207
1758447628509577000,10.748576904296876,0.00006639258936047554,-0.01956922933459282,-0.01620248705148697
1758447628519550000,10.758550048828125,0.0018826683517545462,-0.02529236301779747,-0.022968780249357224
1758447628529522000,10.76852197265625,0.003200751729309559,-0.021083923056721687,-0.027533212676644325
1758447628539495000,10.778494873046874,0.003085436997935176,-0.005439183674752712,-0.026270607486367226
1758447628549468200,10.78846826171875,-0.0017281097825616598,0.015322591178119183,-0.013631435111165047
1758447628559441000,10.79844091796875,-0.00480272900313139,0.03001578152179718,-0.0016344280447810888
1758447628569412900,10.808412841796875,-0.0031162339728325605,0.029352810233831406,0.011856120079755783
1758447628579386000,10.81838623046875,0.004124368540942669,0.006959088146686554,0.015940343961119652
1758447628589359000,10.828359130859376,0.012631876394152641,-0.01823948137462139,0.017325447872281075
1758447628599330800,10.838330810546875,0.01821812242269516,-0.04042121767997742,0.019305242225527763
1758447628609304000,10.848303955078125,0.019199050962924957,-0.05631724372506142,0.02237183414399624
1758447628619277000,10.858277099609374,0.018693581223487854,-0.07146690785884857,0.030528029426932335
1758447628629248800,10.868248779296875,0.019416648894548416,-0.08352623879909515,0.03857104107737541
1758447628639222000,10.878221923828125,0.02028670348227024,-0.08306711167097092,0.048334721475839615
1758447628649195000,10.888195068359375,0.02280784770846367,-0.07722564786672592,0.052828963845968246
1758447628659166700,10.898166748046876,0.027223102748394012,-0.06750297546386719,0.056964319199323654
1758447628669140000,10.908139892578125,0.02662128396332264,-0.058037787675857544,0.053627997636795044
1758447628679113000,10.918113037109375,0.024129096418619156,-0.044621583074331284,0.04512771964073181
1758447628689085000,10.9280849609375,0.018963593989610672,-0.024480411782860756,0.029532160609960556
1758447628699058000,10.938057861328126,0.01643465645611286,0.0023293637204915285,0.008401574566960335
1758447628709031000,10.948031005859375,0.011817388236522675,0.03156038001179695,-0.004559715744107962
1758447628719004000,10.95800390625,0.00491527421399951,0.05323877930641174,-0.010510548949241638
1758447628728976100,10.96797607421875,0.00025308760814368725,0.06826748698949814,-0.006551046390086412
1758447628738948900,10.977948974609374,-0.0061651309952139854,0.07683967053890228,-0.002203169511631131
1758447628748921900,10.987921875,-0.011865868233144283,0.07726269960403442,-0.003939314745366573
1758447628758894000,10.99789404296875,-0.018024161458015442,0.07343253493309021,-0.00870317779481411
1758447628768867000,11.0078671875,-0.019734572619199753,0.06633099168539047,-0.011494897305965424
1758447628778839800,11.01783984375,-0.02140783704817295,0.06712141633033752,-0.010368113406002522
1758447628788812000,11.02781201171875,-0.02252184972167015,0.06809540092945099,-0.003014977090060711
1758447628798785000,11.037784912109375,-0.01860940083861351,0.06934229284524918,0.005865067709237337
1758447628808758000,11.047758056640625,-0.013023154810070992,0.06072564050555229,0.009701350703835487
1758447628818730000,11.05772998046875,-0.009726691991090775,0.04830385744571686,0.008017433807253838
1758447628828703000,11.067702880859375,-0.004916660487651825,0.04348517581820488,-0.0028814745601266623
1758447628838676000,11.077676025390625,-0.0026100967079401016,0.042062778025865555,-0.012751149013638496
1758447628848648000,11.08764794921875,0.00006330176256597042,0.04573079198598862,-0.015692802146077156
1758447628858621000,11.097620849609376,0.003179199993610382,0.05066829174757004,-0.01108074001967907
1758447628868594000,11.107593994140625,0.006810991559177637,0.052020903676748276,0.0011261221952736378
1758447628878567000,11.11756689453125,0.011698424816131592,0.046231724321842194,0.011202991008758545
1758447628888539000,11.127538818359374,0.015717433765530586,0.0367467999458313,0.018004553392529488
1758447628898512000,11.137511962890626,0.01820749044418335,0.03153526037931442,0.017981650307774544
1758447628908484900,11.14748486328125,0.015404557809233665,0.04703684151172638,0.009238457307219505
1758447628918457000,11.15745703125,0.011819143779575825,0.07280745357275009,0.0040913657285273075
1758447628928429800,11.167429931640624,0.0037530004046857357,0.10606766492128372,0.004768337123095989
1758447628938402800,11.17740283203125,-0.002329127164557576,0.14785613119602203,0.014946939423680305
1758447628948375000,11.187375,-0.004941408522427082,0.18672116100788116,0.03686567023396492
1758447628958348000,11.19734814453125,-0.0034079598262906075,0.2151959389448166,0.0623028539121151
1758447628968320800,11.20732080078125,0.003842787118628621,0.21997004747390747,0.08719193190336227
1758447628978293000,11.21729296875,0.014687977731227875,0.200765460729599,0.09800463169813156
1758447628988266000,11.227265869140625,0.025804799050092697,0.18077558279037476,0.09462229162454605
1758447628998239000,11.237239013671875,0.050044093281030655,0.16587546467781067,0.07942203432321548
1758447629008211000,11.2472109375,0.023325994610786438,0.1329067051410675,0.05354459583759308
1758447629018184000,11.257183837890626,-0.039689455181360245,0.06914743781089783,0.0226183719933033
1758447629028157000,11.267156982421875,-0.07024133950471878,0.017167018726468086,-0.016969863325357437
1758447629038129000,11.27712890625,-0.09895288199186325,-0.026150360703468323,-0.037547845393419266
1758447629048102000,11.287101806640624,-0.12426567822694778,-0.049156881868839264,-0.018026607111096382
1758447629058074000,11.29707421875,-0.14745941758155823,-0.04878563806414604,-0.005107613280415535
1758447629068046300,11.30704638671875,-0.16547994315624237,-0.044875919818878174,-0.010716645047068596
1758447629078019300,11.317019287109375,-0.15138861536979675,-0.02253173291683197,-0.0338057205080986
1758447629087992000,11.326991943359374,-0.07331913709640503,0.06111396476626396,-0.05469673499464989
1758447629097965300,11.33696533203125,0.014316176064312458,0.1966044157743454,-0.07828409224748611
1758447629107937300,11.346937255859375,0.07348079234361649,0.2983960807323456,-0.1277780532836914
1758447629117910300,11.35691015625,0.11058395355939865,0.32498905062675476,-0.19305559992790222
1758447629127883300,11.36688330078125,0.12010332942008972,0.2784183919429779,-0.26989680528640747
1758447629137855200,11.376855224609375,0.10313473641872406,0.19095298647880554,-0.32607510685920715
1758447629147828200,11.386828125,0.06779801100492477,0.10038428008556366,-0.3453868627548218
1758447629157801500,11.396801513671875,0.017795834690332413,0.033517900854349136,-0.3157948851585388
1758447629167773200,11.406773193359374,-0.03547606244683266,0.005537103395909071,-0.2630334794521332
1758447629177746200,11.41674609375,-0.07447300106287003,0.017716005444526672,-0.19601289927959442
1758447629187719400,11.426719482421875,-0.10232054442167282,0.05608508363366127,-0.13553813099861145
1758447629197691100,11.436691162109375,-0.11352313309907913,0.11319790035486221,-0.08324776589870453
1758447629207664000,11.4466640625,-0.11660368740558624,0.1706254631280899,-0.03863563388586044
1758447629217637400,11.456637451171876,-0.11958856135606766,0.20124728977680206,-0.0020211644005030394
1758447629227609300,11.466609375,-0.12232683598995209,0.18454775214195251,0.03172896057367325
1758447629237582000,11.47658203125,-0.12496097385883331,0.11405680328607559,0.057528868317604065
1758447629247555300,11.486555419921874,-0.12656043469905853,0.027475958690047264,0.07072106748819351
1758447629257527300,11.49652734375,-0.11963754892349243,-0.04378783702850342,0.059964559972286224
1758447629267500300,11.506500244140625,-0.09967290610074997,-0.08265233784914017,0.024473825469613075
1758447629277473300,11.516473388671875,-0.07398565113544464,-0.0902990773320198,-0.030647482722997665
1758447629287445200,11.5264453125,-0.04722070321440697,-0.08162820339202881,-0.09556412696838379
1758447629297418200,11.536418212890625,-0.029504021629691124,-0.0730203315615654,-0.15405113995075226
1758447629307391500,11.5463916015625,-0.022841408848762512,-0.05675065889954567,-0.1998944878578186
1758447629317363200,11.55636328125,-0.027681972831487656,-0.020842991769313812,-0.22854237258434296
1758447629327336200,11.566336181640626,-0.039704617112874985,0.046605370938777924,-0.24184124171733856
1758447629337309400,11.576309326171875,-0.04943287745118141,0.15135681629180908,-0.2468400001525879
1758447629347281200,11.58628125,-0.05533883348107338,0.2807087302207947,-0.24360312521457672
1758447629357254100,11.596254150390624,-0.0587327666580677,0.42804837226867676,-0.23297019302845
1758447629367227400,11.606227294921876,-0.06154588982462883,0.5924675464630127,-0.21967698633670807
1758447629377200400,11.616200439453126,-0.056530095636844635,0.7644084095954895,-0.20406712591648102
1758447629387172000,11.626172119140625,-0.048953719437122345,0.9296757578849792,-0.19321778416633606
1758447629397145300,11.636145263671875,-0.03333507850766182,1.0678539276123047,-0.18833567202091217
1758447629407118300,11.646118408203124,-0.008740635588765144,1.164039969444275,-0.19327859580516815
1758447629417090300,11.65609033203125,0.02167319506406784,1.1884087324142456,-0.2026907354593277
1758447629427063300,11.666063232421875,0.06164476275444031,1.139687418937683,-0.20535892248153687
1758447629437036300,11.676036376953125,0.10048910230398178,1.02528715133667,-0.20713737607002258
1758447629447008300,11.68600830078125,0.1399373859167099,0.8727890253067017,-0.21009184420108795
1758447629456981500,11.6959814453125,0.18026190996170044,0.7018348574638367,-0.22003422677516937
1758447629466954200,11.705954345703125,0.21327325701713562,0.5515276789665222,-0.24304120242595673
1758447629476926200,11.71592626953125,0.23977091908454895,0.4651086628437042,-0.27819839119911194
1758447629486899500,11.7258994140625,0.2572929561138153,0.45012468099594116,-0.3322839140892029
1758447629496872200,11.7358720703125,0.27388498187065125,0.49787384271621704,-0.40537917613983154
1758447629506844200,11.74584423828125,0.283936470746994,0.5938889980316162,-0.48172831535339355
1758447629516817400,11.7558173828125,0.3038023114204407,0.7033084630966187,-0.550947904586792
1758447629526790400,11.765790283203126,0.32557180523872375,0.7695862650871277,-0.6075043678283691
1758447629536762000,11.77576220703125,0.3211003541946411,0.7332285046577454,-0.655421257019043
1758447629546735400,11.7857353515625,0.29004204273223877,0.6336710453033447,-0.6782088875770569
1758447629556708400,11.795708251953124,0.25609472393989563,0.5286625623703003,-0.6813279986381531
1758447629566680300,11.805680419921876,0.20504502952098846,0.5636398792266846,-0.6900277137756348
1758447629576653300,11.8156533203125,0.11613192409276962,0.755416750907898,-0.698310911655426
1758447629586626300,11.825626220703125,0.03314603120088577,0.9930521249771118,-0.7660808563232422
1758447629596598300,11.835598388671874,-0.030291268602013588,1.1286917924880981,-0.8674114346504211
1758447629606571300,11.8455712890625,-0.08889555931091309,1.1063297986984253,-0.9339435696601868
1758447629616544300,11.855544189453125,-0.1510729193687439,0.9206340909004211,-0.9659299850463867
1758447629626516200,11.86551611328125,-0.1909864842891693,0.6393778920173645,-0.9911285638809204
1758447629636489500,11.875489501953124,-0.19379159808158875,0.45400482416152954,-0.9846727848052979
1758447629646462200,11.885462158203126,-0.19603124260902405,0.41944989562034607,-0.9552454352378845
1758447629656434200,11.89543408203125,-0.2221219688653946,0.45354288816452026,-0.9621382355690002
1758447629666407400,11.905407470703125,-0.2743304669857025,0.5514795780181885,-0.9854178428649902
1758447629676380400,11.91538037109375,-0.3199126124382019,0.7344070672988892,-1.049815058708191
1758447629686352100,11.92535205078125,-0.3400988280773163,0.9176257252693176,-1.1620631217956543
1758447629696325400,11.935325439453125,-0.35830098390579224,0.937104344367981,-1.2129417657852173
1758447629706298400,11.94529833984375,-0.316229909658432,0.7038320302963257,-1.1403067111968994
1758447629716270300,11.955270263671874,-0.22569414973258972,0.42803987860679626,-0.9655900001525879
1758447629726243300,11.965243408203126,-0.17178873717784882,0.37255215644836426,-0.7664834856987
1758447629736216300,11.97521630859375,-0.1707455813884735,0.48776236176490784,-0.6534096598625183
1758447629746188300,11.985188232421875,-0.22247371077537537,0.6760400533676147,-0.6590223908424377
1758447629756161300,11.995161376953124,-0.3562685251235962,0.8459923267364502,-0.7570860981941223
1758447629766134300,12.00513427734375,-0.5013625621795654,0.9879529476165771,-0.9070162773132324
1758447629776106200,12.015106201171875,-0.6074333190917969,0.9233058094978333,-1.0735939741134644
1758447629786079500,12.02507958984375,-0.6687568426132202,0.8193889856338501,-1.1981366872787476
