time,seconds_elapsed,z,y,x
1758447241475776000,0.04177587890625,-0.20737433793544768,0.11680822408646345,0.11691314576566218
1758447241485749000,0.0517490234375,-0.1517161635994911,0.20471622464209793,0.21217150908410548
1758447241495721200,0.06172119140625,-0.2095475903213024,0.10681436107754706,0.12675590986609458
1758447241505693000,0.07169287109375,-0.545057309782505,0.11587649619430303,-0.04884089553654194
1758447241515666000,0.081666015625,-0.7553904975235461,0.1504401523143053,-0.15136077429056166
1758447241525638100,0.09163818359375,-0.5946440552502871,0.02733575069308281,-0.20664017844200133
1758447241535611100,0.101611083984375,-0.04351297851204872,-0.09388210652917622,-0.14033902953863142
1758447241545583000,0.1115830078125,0.5791659156113863,-0.1381333361878991,0.11101181276738643
1758447241555555000,0.12155517578125,0.8813111256092786,-0.21421090595722198,0.23352993893325327
1758447241565528000,0.131528076171875,0.8747527900069951,-0.2960428014695644,0.2121656638652086
1758447241575500000,0.1415,0.7909931413024663,-0.36924013962745666,0.09747077867090702
1758447241585472000,0.151471923828125,0.6655956603080034,-0.3729083067461848,0.029044308176636693
1758447241595445200,0.1614453125,0.5231336472660303,-0.18444442098587752,0.13089140223562717
1758447241605417000,0.1714169921875,0.3487105618178844,-0.025417203720659014,0.2260211707383394
1758447241615389200,0.18138916015625,0.26607962488234044,0.05959975156858563,0.3874538417100906
1758447241625362200,0.191362060546875,0.2263444113433361,0.04658478717282414,0.45415012741088867
1758447241635334100,0.201334228515625,0.2944312746196985,-0.07703267853707074,0.35025369960665703
1758447241645306000,0.21130615234375,0.3613508476823568,-0.22604309030920267,0.14427812255322933
1758447241655278000,0.221278076171875,0.31152503276169297,-0.351640331659466,-0.0733335317581892
1758447241665251300,0.231251220703125,0.25582009667456146,-0.3879024622604251,-0.19685002131164073
1758447241675223000,0.24122314453125,0.28556583111882206,-0.38131270860657096,-0.20895430060327053
1758447241685195300,0.2511953125,0.36009529466331003,-0.28371289672851563,-0.1086474217236042
1758447241695168300,0.261168212890625,0.40099019963145255,-0.29030864173173904,0.036066169637441636
1758447241705140200,0.27114013671875,0.456577646818757,-0.3126639736637473,0.18698738346695898
1758447241715112200,0.2811123046875,0.4882593177616596,-0.3166308314681053,0.2410492285221815
1758447241725085200,0.291085205078125,0.42942777408659455,-0.34559915179908274,0.20704525211155414
1758447241735057200,0.30105712890625,0.1660036321491003,-0.32419542150348424,0.06425473776757716
1758447241745029000,0.311029052734375,-0.04563479297161102,-0.22430486833974717,-0.017992752808332443
1758447241755001300,0.32100146484375,-0.11757131741344928,-0.18417670996040106,-0.0532604655444622
1758447241764974000,0.33097412109375,-0.13827800535559653,-0.16774506898894906,-0.009022679889202117
1758447241774946300,0.3409462890625,-0.050312137132883065,-0.12309855640232563,0.10412205325365066
1758447241784918300,0.350918212890625,0.012881693404912948,-0.09952171985134482,0.1609136155337095
1758447241794891000,0.36089111328125,0.0011246201157569884,-0.038032793535292146,0.2632709972023964
1758447241804863200,0.37086328125,0.019746902999281883,0.003723404437303543,0.3331079190164804
1758447241814835200,0.380835205078125,0.12363690106272697,-0.05367722965180874,0.3769324476957321
1758447241824808200,0.39080810546875,0.16645546756982801,-0.17739523312672972,0.3723328449457884
1758447241834780200,0.4007802734375,0.15331658453345298,-0.252312965336442,0.3219190010040998
1758447241844752400,0.41075244140625,0.08701602015197277,-0.3336776817284524,0.1855751785814762
1758447241854725000,0.42072509765625,-0.004968436062335968,-0.3930697818957269,0.04689063825160265
1758447241864697300,0.430697265625,-0.08942132772803306,-0.39812589624151584,-0.030220073957741258
1758447241874669300,0.44066943359375,-0.11617314105331897,-0.36629604899957774,-0.04395487706065178
1758447241884641300,0.450641357421875,-0.14558978967368602,-0.3048923167489469,-0.01243541094213724
1758447241894614300,0.4606142578125,-0.2268266419023275,-0.25816446784362196,-0.018957798448204992
1758447241904586200,0.470586181640625,-0.33959903460144997,-0.2351537407428026,-0.056396133221685886
1758447241914558200,0.48055810546875,-0.340451267516613,-0.20749679527133702,-0.033993455016613
1758447241924531200,0.49053125,-0.23237667724490163,-0.1562419704608619,0.06174860016554594
1758447241934503400,0.50050341796875,-0.13009586794376374,-0.14912074027881025,0.0891366655677557
1758447241944475100,0.51047509765625,-0.06851414877772331,-0.1857385524496436,0.06500964778810739
1758447241954448100,0.5204482421875,0.01963935097157955,-0.20666998905837536,0.004042261128127575
1758447241964420400,0.53042041015625,0.07201718846261501,-0.2678416661188006,-0.07563274861127138
1758447241974392000,0.54039208984375,0.017591770792007445,-0.30175781811550256,-0.09806669873744249
1758447241984364300,0.5503642578125,0.007499415844678879,-0.30703736595362424,-0.09350888930261135
1758447241994337300,0.560337158203125,-0.018355156379938124,-0.3143053111299872,-0.09035539370775222
1758447242004309200,0.570309326171875,-0.06710311293601989,-0.326202669672668,-0.07296820557713508
1758447242014281200,0.58028125,-0.08526654613614082,-0.3246859814994037,-0.049052784721553326
1758447242024254200,0.590254150390625,-0.0547854831546545,-0.32178675292655823,-0.019076748652756215
1758447242034226200,0.60022607421875,-0.08372633095681667,-0.32005992913395165,-0.05394464841634035
1758447242044198400,0.610198486328125,-0.0690109923839569,-0.2568181678012013,-0.028273908326029776
1758447242054171400,0.62017138671875,-0.025744682109355925,-0.2196656642317772,0.037325814309716224
1758447242064143000,0.63014306640625,0.08303250347375869,-0.21498189032971857,0.1339066584035754
1758447242074115300,0.640115234375,0.21210545811057088,-0.22213351565003395,0.20998335139006374
1758447242084087000,0.650087158203125,0.3091501203238964,-0.2144723333723843,0.25267244629859925
1758447242094060300,0.660060302734375,0.3201607591599226,-0.18737872087210417,0.24514058948904274
1758447242104032300,0.6700322265625,0.23969021512866018,-0.17306465657651424,0.1721706303462386
1758447242114004200,0.680004150390625,0.14685235695540905,-0.19656199815049766,0.09904401933699845
1758447242123977200,0.689977294921875,0.15233400323688984,-0.21507161443978548,0.11362491787523031
1758447242133949200,0.69994921875,0.1917015525072813,-0.23649434169679878,0.13994506178498267
1758447242143921200,0.709921142578125,0.20484277363121509,-0.21036285222694276,0.17470307143330574
1758447242153894100,0.71989404296875,0.25036592292189597,-0.19496245399937032,0.19730916325598954
1758447242163866400,0.729866455078125,0.26031740809381004,-0.17919044598042963,0.21348580655306576
1758447242173838000,0.739838134765625,0.2121229937672615,-0.18351722313836216,0.25175328562706706
1758447242183810300,0.749810302734375,0.06858896757960319,-0.1311886316165328,0.2317790036126971
1758447242193783300,0.759783203125,-0.049768531775474543,-0.0801769679121673,0.2087126008018851
1758447242203755300,0.76975537109375,-0.06531213786602019,-0.08540873108580709,0.2029310947909951
1758447242213727200,0.779727294921875,-0.07419511702358722,-0.14196020099967718,0.18115414726883172
1758447242223700200,0.7897001953125,-0.06052782619893551,-0.1584007559299469,0.16905366736948488
1758447242233672200,0.799672119140625,-0.020944588351249693,-0.146075673494488,0.15447306109219788
1758447242243644200,0.80964404296875,0.015707272219657897,-0.12703501906841994,0.1435696820229292
1758447242253617400,0.819617431640625,0.05599836607575416,-0.11433920362442732,0.16949848852753638
1758447242263589000,0.829589111328125,0.08604162216186523,-0.14678820567801593,0.1675719043791294
1758447242273561300,0.839561279296875,0.06369885745048523,-0.17425284344777464,0.10780863281190395
1758447242283533300,0.849533203125,0.08693301804363728,-0.1580120488733053,0.13390139770656823
1758447242293506000,0.859506103515625,0.207813898396492,-0.1707064030125737,0.22916589850485322
1758447242303478300,0.869478271484375,0.27155484142303465,-0.185950441634655,0.29503303990513086
1758447242313450200,0.8794501953125,0.3110527390748262,-0.21960706591233609,0.27857582610100506
1758447242323423200,0.88942333984375,0.30835984672904015,-0.1985606246218085,0.23349545214176176
1758447242333395200,0.899395263671875,0.24420973837971685,-0.21221271787732837,0.1984112792789936
1758447242343367200,0.9093671875,0.10711422080695629,-0.2208431835785508,0.14321312367022038
1758447242353340200,0.919340087890625,-0.00590250204205513,-0.17674480639398096,0.08160773136764764
1758447242363312000,0.92931201171875,-0.05999883388876914,-0.11022563082575797,0.058869829858839505
1758447242373284000,0.9392841796875,-0.04941197342276573,-0.04821268063560128,0.10511486368328332
1758447242383256300,0.94925634765625,0.07447393396496772,-0.03290726721510291,0.19605302571505306
1758447242393229300,0.959229248046875,0.2278027934581041,-0.027232728710025546,0.2696218275338411
1758447242403201000,0.969200927734375,0.3032359278440475,-0.049588206772506235,0.31843788089007136
1758447242413173200,0.97917333984375,0.3120551941156387,-0.0872694103911519,0.2549474054932594
1758447242423146200,0.989146240234375,0.2439198155224323,-0.12801613906025885,0.1534814197063446
1758447242433118200,0.9991181640625,0.16435001972317695,-0.1297263039790094,0.06583645400106906
1758447242443090200,1.009090087890625,0.09366086499392985,-0.11469137806296348,0.016276888801157473
1758447242453063200,1.019063232421875,0.013829787909984587,-0.1129794595785439,-0.019485913975536822
1758447242463035100,1.02903515625,-0.04109948762953281,-0.09897928353771566,0.0020475801795721052
1758447242473007000,1.039007080078125,-0.028440497064590453,-0.07861074150875211,0.023741233332455158
1758447242482979300,1.048979248046875,-0.008781856870651245,-0.1539769481383264,-0.017487725895643232
1758447242492952000,1.0589521484375,0.026778701332211493,-0.22711934123858807,-0.06622106940448284
1758447242502924300,1.06892431640625,0.14505202953517435,-0.27695743111893534,-0.07614215943813324
1758447242512896300,1.078896240234375,0.2712012056797743,-0.36124446469843385,-0.0842389566540718
1758447242522869000,1.088868896484375,0.3646078036516905,-0.4219955782592296,-0.05237783749103546
1758447242532841200,1.09884130859375,0.4047317242473364,-0.42422962092161176,-0.06770955439656973
1758447242542813200,1.108813232421875,0.3502022616803646,-0.3714217214502394,-0.07809884646385908
1758447242552786200,1.1187861328125,0.2150508639127016,-0.3219235310487449,-0.06325023690015077
1758447242562758100,1.128758056640625,0.09306932884156703,-0.2521368781171739,-0.04066577238738536
1758447242572730400,1.13873046875,0.049049569851160046,-0.20835107401311395,0.015182663823664188
1758447242582702000,1.1487021484375,0.09585691373348236,-0.18914558441415427,0.0890840585976839
1758447242592675300,1.15867529296875,0.1336298872888088,-0.21731866271421313,0.13060644781440495
1758447242602647300,1.168647216796875,0.10952771168947219,-0.24413725766539573,0.05826660326868295
1758447242612619300,1.178619384765625,0.07583119379281997,-0.23760785589665173,0.02054214503020048
1758447242622592000,1.188592041015625,0.0997287867307663,-0.23256109390109775,0.01708703614026308
1758447242632563700,1.198563720703125,0.15022972443401814,-0.20277955749109386,0.12294628845006227
1758447242642536000,1.208535888671875,0.221333305183053,-0.1660254055894911,0.24914602573812006
1758447242652509000,1.218509033203125,0.1847299599289894,-0.08400690146386623,0.42276042515188456
1758447242662481000,1.22848095703125,0.07580547482967376,0.020350860241800547,0.44891982554197307
1758447242672452900,1.238452880859375,-0.037113048341870306,0.014702332960814237,0.3462131920441985
1758447242682425000,1.248425048828125,-0.09425824636518955,-0.029902824702113865,0.2736532750070095
1758447242692397800,1.258397705078125,-0.13310498663187026,-0.08576631235182285,0.21746318575143814
1758447242702370000,1.2683701171875,-0.19375030173063276,-0.07800444617867469,0.20973522184789178
1758447242712342000,1.278342041015625,-0.12963409565091133,-0.03083440646380186,0.2229778575196862
1758447242722314800,1.288314697265625,-0.06869242795407772,-0.03804375332072377,0.21462503971606492
1758447242732287000,1.298286865234375,-0.06487608453631401,-0.08025368641018867,0.20810235994905232
1758447242742259000,1.308259033203125,-0.024264672684669492,-0.11953384965807198,0.15425474216639995
1758447242752232000,1.31823193359375,-0.03330255014300346,-0.18235913914442062,0.08137889104783534
1758447242762204000,1.328203857421875,-0.03903554083704948,-0.20115327146351336,0.04568739994168281
1758447242772176100,1.338176025390625,0.03804360719025135,-0.24279738736376164,0.05586100343167782
1758447242782147800,1.34814794921875,0.11663023717105388,-0.24910087142214177,0.06257043794244528
1758447242792120800,1.358120849609375,0.09840309108495712,-0.20101123264431953,0.07715396682918071
1758447242802093000,1.368093017578125,0.08636427824497223,-0.16209464201182125,0.1163549273610115
1758447242812064800,1.378064697265625,0.07109422839879989,-0.1670291758045554,0.14181144017875194
1758447242822038000,1.3880380859375,0.02763327233493328,-0.2059852216646075,0.07703472436368465
1758447242832010000,1.398010009765625,0.008646832314133643,-0.2658646669574082,-0.021916063731908797
1758447242841982000,1.40798193359375,0.04844400517344474,-0.3209418265350163,-0.09254238235801458
1758447242851955000,1.417954833984375,0.1178711771428585,-0.3374127766035497,-0.10127455486804246
1758447242861927000,1.427927001953125,0.235145557436347,-0.29150705773606894,-0.05354512770473957
1758447242871899000,1.43789892578125,0.2916039422392845,-0.2848192505352199,0.016964871065318583
1758447242881871000,1.44787109375,0.28744097734093665,-0.23857407058030367,0.10652180787175893
1758447242891844000,1.457843994140625,0.31166473349332807,-0.18708704444915056,0.13794395109564064
1758447242901815800,1.46781591796875,0.2587082193315029,-0.17660335209667682,0.11262275509536265
1758447242911788000,1.4777880859375,0.12974515480995177,-0.16421163416579365,0.04217851503789424
1758447242921761000,1.487760986328125,0.039410219368338585,-0.1671127624347806,0.027253333106637
1758447242931733000,1.49773291015625,0.08004968827068805,-0.12906433293893932,0.03750292444229126
1758447242941705000,1.507705078125,0.2367179213196039,-0.16024799123182892,0.08074146992713213
1758447242951677000,1.517677001953125,0.3896837927192449,-0.26703356460630895,0.1270104691490531
1758447242961650000,1.52764990234375,0.4801736264616251,-0.29777883148193357,0.10549597195535898
1758447242971622000,1.537621826171875,0.425939347448945,-0.2778828754007816,0.10105185202807188
1758447242981593900,1.54759375,0.30444238102436066,-0.23824761510491368,0.12927227660119534
1758447242991566800,1.55756689453125,0.0961076736241579,-0.18631606007665394,0.17234920178353785
1758447243001539000,1.5675390625,-0.0862830297023058,-0.12552388385310767,0.17242840449959038
1758447243011510800,1.5775107421875,-0.17265139960050582,-0.06506985354274511,0.19600830979049205
1758447243021483800,1.58748388671875,-0.1854670420318842,-0.07850041300207376,0.23294717060923575
1758447243031456000,1.5974560546875,-0.12700900784432886,-0.10053498854711651,0.2563113873228431
1758447243041428000,1.607427978515625,0.015721300745010373,-0.1280988489076495,0.2336921437576413
1758447243051400000,1.61739990234375,0.13643851496875287,-0.2564164551325142,0.16325228761434554
1758447243061373000,1.627373046875,0.15067337654829024,-0.2828222314991057,0.11054331847280263
1758447243071345000,1.637344970703125,0.05214344421327114,-0.2094929375246167,0.11070493877530098
1758447243081316900,1.64731689453125,-0.05453355422019958,-0.14694880306720734,0.12563158201128244
1758447243091290000,1.6572900390625,-0.18886603682041167,-0.09064473204314707,0.15930793390274048
1758447243101261800,1.66726171875,-0.3262964854359627,-0.11065496215373277,0.10907967566102743
1758447243111234000,1.677234130859375,-0.32979952512085436,-0.1278301149688661,0.0881388867020607
1758447243121207000,1.68720703125,-0.23422785806953905,-0.15118790194168685,0.09757014739215374
1758447243131178800,1.6971787109375,-0.18241759133338928,-0.13517565542608498,0.11642331642210482
1758447243141151000,1.70715087890625,-0.13405425018072128,-0.1176930440969765,0.12988953171670437
1758447243151122700,1.717122802734375,-0.0845920078754425,-0.1063838607057929,0.1548591378003359
1758447243161096000,1.727095947265625,-0.03380816157758236,-0.14060922478213905,0.1598062388136983
1758447243171068000,1.73706787109375,-0.03741699972450733,-0.15891893458515405,0.0854047855630517
1758447243181039900,1.747039794921875,0.026384733578562736,-0.13979440126791595,0.048396658900380134
1758447243191012900,1.757012939453125,0.11388239976763724,-0.1691946832753718,0.07101794829219579
1758447243200984800,1.76698486328125,0.11817571304738521,-0.17737813586145637,0.13192308337092398
1758447243210956800,1.776956787109375,0.12471125229597091,-0.1516032047443092,0.15170651898831128
1758447243220929000,1.786928955078125,0.1280097093194723,-0.14140695103108883,0.12938655063062907
1758447243230902000,1.796902099609375,0.14933949759602547,-0.17651596607416867,0.11759703637659549
1758447243240873700,1.806873779296875,0.2019756937623024,-0.24542715134546159,0.10149754996895789
1758447243250846000,1.816845947265625,0.16274609165787696,-0.31979046454280613,0.03993395098149776
1758447243260819000,1.82681884765625,0.09236264187693595,-0.3022100919276476,0.04147241259515285
1758447243270791000,1.836791015625,0.10170330167412757,-0.27434140340164304,0.05078413855880499
1758447243280763000,1.846762939453125,0.14150222809910773,-0.2554413264900446,0.10060673860907554
1758447243290735900,1.85673583984375,0.12490472904145716,-0.2115586378827691,0.08281126193851232
1758447243300707800,1.866707763671875,0.10293138216435908,-0.16479352570697664,0.05330313564240932
1758447243310679800,1.8766796875,0.1188432370454073,-0.1792293166860938,0.02558276954591274
1758447243320652000,1.886652099609375,0.09932955828011035,-0.22287673523277043,0.03148264123946428
1758447243330624800,1.896624755859375,0.038818098694086076,-0.2670880712725222,0.03164280023723841
1758447243340597000,1.906596923828125,-0.007784078004956245,-0.28572233685478565,-0.04109247336685657
1758447243350569000,1.91656884765625,-0.038192660272121426,-0.33033187843188644,-0.09980682040303945
1758447243360541700,1.926541748046875,-0.031063831305503845,-0.3354834159761667,-0.07855652710348367
1758447243370514000,1.936513916015625,0.013773089286684989,-0.3027496056318283,-0.005735913303494453
1758447243380486000,1.94648583984375,0.016233926442265508,-0.24801935979574918,0.08080284472554922
1758447243390459000,1.956458984375,0.002496492990851402,-0.1792697948269546,0.15164835906028748
1758447243400430800,1.966430908203125,0.039652795952558516,-0.1346472476378083,0.20734657314568758
1758447243410403000,1.976403076171875,0.07703530888557433,-0.15064897275939582,0.2014478704959154
1758447243420374800,1.986374755859375,0.02375730768442154,-0.17798749993145466,0.12348989380747079
1758447243430348000,1.99634814453125,0.0000789104551076889,-0.201884069956094,0.08660334769785404
1758447243440320000,2.006320068359375,0.056877486997842785,-0.22733327625021338,0.13205021688193083
1758447243450292000,2.0162919921875,0.10902151573300362,-0.23985884969383478,0.2510226332649588
1758447243460265000,2.026264892578125,0.15197627584040163,-0.2078165287449956,0.29229572389572855
1758447243470237000,2.03623681640625,0.12526304095983504,-0.16479396409839392,0.2893161235630512
1758447243480209000,2.046208984375,-0.030737083569169044,-0.12499255345538259,0.2512310153186321
1758447243490180900,2.056180908203125,-0.07882686847746372,-0.12244403801634907,0.19020079255551098
1758447243500154000,2.066154052734375,-0.06374912633299827,-0.1661279891811311,0.17967676819264888
1758447243510125800,2.076125732421875,-0.038922728112339974,-0.1805364537619054,0.22527327498048544
1758447243520098000,2.08609814453125,0.00656301177740097,-0.0711577951543033,0.32220863160043955
1758447243530071000,2.096071044921875,0.04288052582740783,0.002658843945711851,0.3670253861874342
1758447243540042800,2.106042724609375,0.07269932550787925,-0.08200798273161053,0.2865603951141238
1758447243550015000,2.116014892578125,-0.013070493975281714,-0.2522454530581832,0.02351706918776035
1758447243559988000,2.125988037109375,-0.18990005604326723,-0.34908845521956683,-0.18000614627748726
1758447243569960000,2.1359599609375,-0.2504465869426727,-0.2787893227212131,-0.15366408279687166
1758447243579932000,2.145931884765625,-0.2515367202669382,-0.19622282932400703,0.009659224227070808
1758447243589904000,2.15590380859375,-0.2041886936366558,-0.09646788523867726,0.2038707137286663
1758447243599876900,2.165876953125,0.037573651590943336,-0.07446984231173992,0.2718736981138587
1758447243609849000,2.17584912109375,0.22408055806457994,-0.12755772776827215,0.25107670153975487
1758447243619820800,2.18582080078125,0.26552140647768974,-0.2527538409717381,0.124670043502748
1758447243629793800,2.195793701171875,0.2782043624401092,-0.31540728102251886,-0.005881459254026412
1758447243639766000,2.20576611328125,0.32369419398307797,-0.32855332445204255,-0.058738020172715184
1758447243649737700,2.21573779296875,0.3496808681547642,-0.3492052134670317,-0.07542524334043264
1758447243659710000,2.2257099609375,0.33773440977334973,-0.3164402773320675,-0.030167466987669467
1758447243669683000,2.235682861328125,0.35247371374368663,-0.25042232928425073,0.028662615382671355
1758447243679655000,2.245655029296875,0.38283787234723565,-0.184087278111279,0.08817015862315893
1758447243689627000,2.255626953125,0.40420156289339065,-0.164704239988327,0.14803367569446563
1758447243699600000,2.265599853515625,0.4215256226599216,-0.19703867575153708,0.17345044102370738
1758447243709571800,2.27557177734375,0.3509171319514513,-0.26398689038679,0.08631780875474214
1758447243719543800,2.285543701171875,0.231115279006958,-0.29242300353720785,-0.011271920120716095
1758447243729517000,2.29551708984375,0.08569792329072952,-0.2247358071029186,-0.018458909015357492
1758447243739488800,2.30548876953125,-0.022347440886497497,-0.17533114020377397,0.045616088271141046
1758447243749461000,2.3154609375,-0.043623453149199486,-0.1652906615741551,0.1515203487664461
1758447243759433000,2.325432861328125,-0.006406944432854652,-0.14468144265711308,0.22816636607348917
1758447243769406000,2.335406005859375,0.07958265528082847,-0.12678425917774439,0.2587073425486684
1758447243779378000,2.3453779296875,0.05977028582990169,-0.10383183813542127,0.30551673225760456
1758447243789350100,2.35535009765625,0.026025252616405484,-0.08613704536035656,0.34865064832419157
1758447243799323000,2.365322998046875,-0.043242929399013516,-0.061718351157754654,0.3244982038423419
1758447243809294800,2.375294921875,-0.13020692710280418,-0.046162323977053166,0.3015188947930932
1758447243819267000,2.38526708984375,-0.2704851663649082,-0.09794555657580495,0.24223610021919012
1758447243829238800,2.39523876953125,-0.30617607294917104,-0.09418182012811302,0.2175216379404068
1758447243839212000,2.4052119140625,-0.1350116970360279,-0.07780453969240188,0.26432781277894973
1758447243849184000,2.41518408203125,0.13455752352774142,-0.14656623349040745,0.2664373522788286
1758447243859156000,2.425156005859375,0.36457799303531646,-0.22404402544647453,0.25199644673317667
1758447243869129000,2.43512890625,0.4705681782484054,-0.25834333154186606,0.21294716963171959
1758447243879101000,2.445100830078125,0.40441608242690563,-0.2959953090660274,0.1763900016069412
1758447243889073000,2.455072998046875,0.21591069561243056,-0.2490200612708926,0.16899346161484718
1758447243899046000,2.4650458984375,-0.011948796468973158,-0.22671602113470435,0.117215635843575
1758447243909018000,2.47501806640625,-0.26928981910049915,-0.22260347124934196,0.048479661008715626
1758447243918989800,2.48498974609375,-0.3735591718703508,-0.18604805679023265,0.06842997762560844
1758447243928962000,2.494962158203125,-0.3042377983629703,-0.13208543432578443,0.13057313006669283
1758447243938935000,2.50493505859375,-0.24220716638565062,-0.13008315459266304,0.16635522206574677
1758447243948907000,2.514906982421875,-0.18210428760051725,-0.14642784793302416,0.15909253758639097
1758447243958879000,2.52487890625,-0.12114683781266211,-0.18456950867027044,0.14675737214833498
1758447243968852000,2.53485205078125,-0.07202420272529125,-0.2511811848275363,0.11507687024921179
1758447243978824000,2.544823974609375,-0.1002168625086546,-0.2954083029583096,0.08251607838422059
1758447243988796000,2.5547958984375,-0.12544658083319662,-0.2899330864176154,0.08126227893084287
1758447243998767900,2.564767822265625,-0.09108020085096359,-0.23881767007783053,0.11093699396550655
1758447244008740900,2.574740966796875,-0.0624625936537981,-0.1684663690008223,0.1450260183110833
1758447244018713000,2.584713134765625,-0.05620820943415165,-0.15002689533829688,0.16815701079070566
1758447244028684800,2.594684814453125,-0.01770224542915821,-0.18906316682770846,0.1534922333613038
1758447244038657800,2.60465771484375,-0.0506593431353569,-0.22258564333170652,0.11370908902734517
1758447244048630000,2.614630126953125,-0.08266834633648396,-0.2288572709470987,0.09802665898799896
1758447244058602000,2.62460205078125,-0.01770049186348915,-0.24849589126631616,0.109155078984797
1758447244068574000,2.634573974609375,0.0413917485743761,-0.23835750522017476,0.11189297951608895
1758447244078547000,2.644546875,0.01910217535495758,-0.2034007581293583,0.10831570555120706
1758447244088519000,2.654518798828125,0.019467501536011695,-0.17206892353743314,0.10732640225291251
1758447244098491000,2.664490966796875,-0.0006149170279502868,-0.15994798537194727,0.08405249417126179
1758447244108464000,2.674464111328125,0.012551438537240028,-0.12830503900423645,0.10126724834442138
1758447244118435800,2.684435791015625,0.13769582155346868,-0.1407816587395966,0.1229316754028201
1758447244128408000,2.694407958984375,0.2852554499953985,-0.21604718147367238,0.11577215903699398
1758447244138381000,2.704381103515625,0.39141748464405535,-0.31150545127838847,0.11905921788364648
1758447244148352800,2.714352783203125,0.3750643157362938,-0.3286617532625794,0.09013678252100944
1758447244158325000,2.724324951171875,0.3082815207958221,-0.30137568693011996,0.04191343436092138
1758447244168296700,2.734296630859375,0.243519418027997,-0.2934723664596677,0.04944382986575365
1758447244178270000,2.74427001953125,0.2027548614412546,-0.30666999394595623,0.09648381346017122
1758447244188242000,2.754241943359375,0.0563408959031105,-0.28430779388174415,0.10007862308174371
1758447244198214000,2.7642138671875,-0.062335167881846426,-0.18160715173333883,0.0972168039098382
1758447244208187000,2.774186767578125,-0.11251754115521907,-0.10786869243606924,0.11562807439118623
1758447244218158800,2.784158935546875,-0.1283937402009964,-0.05759776409640908,0.15924626684337853
1758447244228130800,2.794130859375,-0.04698094688355922,-0.06206234228983521,0.1898141313254833
1758447244238103000,2.80410302734375,0.04657704225778579,-0.10231295800507068,0.20897154399901627
1758447244248076000,2.814075927734375,0.106381814879179,-0.1272454469487071,0.2247673712849617
1758447244258047700,2.8240478515625,0.08331307398080826,-0.1722564089335501,0.16566431719213723
1758447244268020000,2.83402001953125,0.020360650983452796,-0.15011764236167072,0.15645020638406276
1758447244277993000,2.843992919921875,-0.04802548750042915,-0.07598083139657974,0.18266659765839577
1758447244287965000,2.85396484375,-0.1419920574426651,0.05652092864513397,0.23381927726864812
1758447244297937000,2.86393701171875,-0.21758885795772073,0.183737587890774,0.3377712346524
1758447244307910000,2.873909912109375,-0.24937457379698752,0.2943875816084444,0.49323827521800995
1758447244317881900,2.8838818359375,-0.22651100008189676,0.3839242062792182,0.559886045601964
1758447244327853800,2.893853759765625,-0.19906535927355287,0.33989904046133157,0.5470902769148349
1758447244337826000,2.903825927734375,-0.14939502717554567,0.2536941905617714,0.5124316359877586
1758447244347798800,2.913798828125,-0.15894786841869354,0.19934037682265043,0.4785375496923923
1758447244357771000,2.92377099609375,-0.16055881074666975,0.1948022950015962,0.41315877633094783
1758447244367743000,2.933742919921875,-0.1455161399155855,0.15018369333520531,0.4337865538179874
1758447244377715700,2.9437158203125,-0.17994973991513252,0.09646744684726,0.4257143065214157
1758447244387688000,2.95368798828125,-0.3519102346420288,0.12987652610465883,0.46559565053284163
1758447244397660000,2.963659912109375,-0.46062020020782946,0.268839591114968,0.563925676381588
1758447244407632000,2.9736318359375,-0.43923897400498385,0.3406156642980873,0.6493050352424383
1758447244417604900,2.98360498046875,-0.34160862085819244,0.3048553457394242,0.6837532482892275
1758447244427577000,2.9935771484375,-0.24103052382171153,0.1724134991914034,0.6528934151232242
1758447244437548800,3.003548828125,-0.14723638783693313,0.024073826287686822,0.5587994194090367
1758447244447522000,3.01352197265625,-0.06729951229095459,-0.11339388559833169,0.38768297429084775
1758447244457494000,3.023493896484375,-0.02411269699335098,-0.31849443338289857,0.1697282056301832
1758447244467466000,3.033466064453125,0.0035077158600091934,-0.42698871037140484,0.007176759761571884
1758447244477438000,3.04343798828125,0.0225607913762331,-0.37444954483881593,-0.05021861363053322
1758447244487411000,3.053410888671875,0.01954348938167095,-0.2512793845050037,-0.01741816779077053
1758447244497383000,3.0633828125,0.09824000947773456,-0.14586056943908332,0.06398702674210072
1758447244507355000,3.07335498046875,0.2051169143974781,-0.11874942128211259,0.11401742432415485
1758447244517328100,3.083328125,0.28614567683339115,-0.18224252702742813,0.07649988683462143
1758447244527299800,3.0932998046875,0.36121406956017016,-0.3093137864530086,-0.047397710990905756
1758447244537272000,3.10327197265625,0.36923020275533197,-0.4104568238958716,-0.24322248090803622
1758447244547243800,3.113243896484375,0.3371978186786175,-0.43782808429375286,-0.36432080340385437
1758447244557216800,3.123216796875,0.405317999702692,-0.45242987948954105,-0.3762362821251154
1758447244567189000,3.13318896484375,0.5415069238245487,-0.46649552198201416,-0.3681044135957956
1758447244577161000,3.143160888671875,0.6329600496411323,-0.4736401330396533,-0.3152881846874952
1758447244587134000,3.153134033203125,0.6925199075907469,-0.43143414547294373,-0.25292729784250256
1758447244597106000,3.16310595703125,0.6915344036847353,-0.34222046914622184,-0.21665771458745
1758447244607078000,3.173077880859375,0.647877048265934,-0.301736483066529,-0.2117044760942459
1758447244617051000,3.18305078125,0.6085352179586887,-0.3066517276369035,-0.22339374484419822
1758447244627022800,3.19302294921875,0.6004103636920451,-0.3374133611254394,-0.24758535229265688
1758447244636994800,3.202994873046875,0.6005722762554884,-0.3634367140457034,-0.2874211035966873
1758447244646966800,3.212966796875,0.6168155550479889,-0.3695423374444246,-0.25470599795281884
1758447244656939800,3.222939697265625,0.6422270596802234,-0.38434922675825656,-0.25016309382617474
1758447244666911700,3.232911865234375,0.5895692362040281,-0.43634931697808205,-0.28150632659494873
1758447244676883700,3.2428837890625,0.46237084326744077,-0.44210400804728267,-0.27867081090807916
1758447244686856700,3.252856689453125,0.3878799581676721,-0.44410555712804195,-0.29252690230309963
1758447244696829000,3.262828857421875,0.3192220170050859,-0.4324109546158463,-0.3068219696372747
1758447244706800600,3.272800537109375,0.23698738591074942,-0.37728396454714236,-0.28920564892590045
1758447244716772900,3.28277294921875,0.06703472387492657,-0.2660841549269855,-0.2055471225082874
1758447244726745900,3.292745849609375,-0.1377647951364517,-0.13712043281830846,-0.1612140597850084
1758447244736717800,3.3027177734375,-0.29297055441737174,-0.1034944959398359,-0.16040975766479967
1758447244746689800,3.312689697265625,-0.28866964235305786,-0.10591945806443691,-0.1351198335856199
1758447244756662800,3.322662841796875,0.7544394804090261,0.22872845693565905,0.3892804726153612
1758447244766634800,3.332634765625,1.292853698915243,0.07331855338476598,0.6307078868001699
1758447244776606700,3.342606689453125,0.9940689052611589,-0.05258753471896052,0.3231441588848829
1758447244786579000,3.352578857421875,0.8809744410008191,0.020061375775933265,0.41473230925798416
1758447244796551700,3.3625517578125,0.4497159443557262,-0.11325301582291722,0.19787468818426132
1758447244806524000,3.37252392578125,0.5181675492912531,-0.4135544976502657,-0.18947101697623728
1758447244816495900,3.382495849609375,0.6385170992463827,-0.7513659181825816,-0.3121270903080702
1758447244826468600,3.392468505859375,0.8543348558783531,-0.9405759461350739,-0.41182080572545526
1758447244836440800,3.40244091796875,1.0139689529955387,-0.8917337354242801,-0.39664661746919155
1758447244846412800,3.412412841796875,0.7179448562264442,-0.7459124750822782,-0.4027075249433517
1758447244856384800,3.422384765625,0.12394786670804023,0.15619316288307308,-0.06721534113883972
1758447244866357800,3.432357666015625,0.3416781789630651,0.10072203555181622,0.5226145918279886
1758447244876330000,3.442330078125,0.6573199993938207,-0.015612141282111405,0.47942485392093653
1758447244886301700,3.4523017578125,0.7649597053796052,-0.1073135427713394,0.39482933891415595
1758447244896274700,3.462274658203125,0.8442635437190532,-0.16789003041759132,0.2889998972207308
1758447244906247000,3.472246826171875,0.7995341751545667,-0.008786386915296316,0.26637831556797026
1758447244916219000,3.482218994140625,0.5887666876494884,0.15936039474233984,0.2449836453616619
1758447244926190800,3.49219091796875,0.41659576504230494,-0.06351487918570638,-0.010179448708891868
1758447244936163800,3.502163818359375,0.2268266419023275,-0.5457276102595031,-0.6427601436436176
1758447244946135800,3.5121357421875,-0.02989011135101318,-0.5613540723279118,-0.9649573770672082
1758447244956107800,3.522107666015625,-0.04760346269607544,-0.6299997385308146,-0.8729846112906933
1758447244966081000,3.5320810546875,0.30249066243469713,-0.6585469108402728,-0.7845528791218995
1758447244976052700,3.542052734375,0.5263607926189899,-0.750172470614314,-0.6709907973498106
1758447244986025000,3.55202490234375,-0.10035597871839999,-0.6925511795118451,-0.7628238623946905
1758447244995996700,3.56199658203125,-1.178000992810726,-0.25600743594020603,-0.7772633066356182
1758447245005969700,3.5719697265625,-1.6980512871086597,-0.23790157814621923,-0.7005781263619661
1758447245015942000,3.58194189453125,-1.7345996873050926,-0.22691636601239443,-0.553088056024909
1758447245025913600,3.59191357421875,-1.046536759123206,0.17982655192688107,0.22413842573165893
1758447245035886800,3.601886962890625,-0.29641572643518443,0.13989683872908354,1.5645108316689729
1758447245045858800,3.61185888671875,-0.44453883397877214,-0.8123727600701153,-0.31588381249308584
1758447245055830800,3.621830810546875,0.1248860243409872,-0.4779762625478208,-0.4560129986733198
1758447245065803800,3.6318037109375,0.25803543463647366,-0.6064578271627425,0.1211170271962881
1758447245075775700,3.641775634765625,0.06320552097558975,-0.5359630259618163,0.2323562189787626
1758447245085747700,3.651747802734375,0.11373860738277435,-0.30914427510499953,0.5030576584428549
1758447245095720000,3.661719970703125,-0.09934826298058032,-0.16281506524085998,0.471445545604825
1758447245105693000,3.67169287109375,-0.43495852020680903,-0.06584916735216975,0.40665304769873617
1758447245115664600,3.68166455078125,-0.5125765974164008,0.0021260522432625293,0.36671734315156934
1758447245125636900,3.691636962890625,-0.528846764215827,0.021555267595499753,0.3586082709759474
1758447245135609900,3.70160986328125,-0.43140579616129393,0.06745908676683902,0.36943069376349447
1758447245145581800,3.711581787109375,-0.1992693574130535,0.07382759888544678,0.4433505009770393
1758447245155553800,3.7215537109375,-0.08689911577403545,0.0691594609439373,0.4975450325012207
1758447245165526000,3.731526123046875,-0.041433249628543854,0.08599383749738335,0.5069827229321002
1758447245175498800,3.741498779296875,0.0215717803388834,0.09122238580062984,0.5314624996721744
1758447245185470700,3.751470703125,0.03176058139801025,0.11444675565212964,0.5477151308149099
1758447245195443000,3.76144287109375,0.05526186849474907,0.14647855520695446,0.5473357761085033
1758447245205415700,3.771415771484375,0.08635083424150944,0.22723668400794267,0.5603688606828451
1758447245215388000,3.781387939453125,0.11402151597738265,0.2504289051555097,0.5304278959274291
1758447245225360000,3.79135986328125,0.13488310222029684,0.15186609346419572,0.4146522297590971
1758447245235331800,3.801331787109375,0.16234627868533133,0.0442021298199892,0.34175124419927594
1758447245245304800,3.811304931640625,0.18485855474472046,-0.08070069952532649,0.21285189256370066
1758447245255276800,3.82127685546875,0.11566343796551228,-0.14207491342052816,0.07148527354300022
1758447245265248800,3.831248779296875,0.08945347643196583,-0.11893822185248136,0.027886954835057258
1758447245275221800,3.8412216796875,0.15263094035685063,-0.06536576774939894,0.10909516549110412
1758447245285194000,3.851194091796875,0.2518073539018631,-0.008618190741539002,0.2279775655031204
1758447245295165700,3.861165771484375,0.41971243575811384,0.026230273669213055,0.32594284969270226
1758447245305138000,3.871137939453125,0.5908060845226049,0.01427212485000491,0.3481710481137037
1758447245315110700,3.881110595703125,0.709319651222229,0.03635390053763985,0.3858142578095197
1758447245325083000,3.891082763671875,0.7220821021616458,0.10889949678853153,0.4353659319639206
1758447245335054800,3.901054931640625,0.5879629700511694,0.15779372994750737,0.41423546565175057
1758447245345027600,3.911027587890625,0.3420464277535677,0.16112228984832763,0.2792705303668976
1758447245354999800,3.920999755859375,0.0677870035469532,0.0712454734377563,0.052883448925614356
1758447245364971800,3.9309716796875,0.047536827200651166,-0.007412906605005264,0.0026759412109851836
1758447245374943700,3.94094384765625,0.26884032176733014,-0.11097674145400524,0.09219546861648559
1758447245384916700,3.950916748046875,0.3575836041033268,-0.18360241720378398,0.17611001562178133
1758447245394889000,3.960888916015625,0.29096389077007767,-0.26212591882050035,0.08086626535058021
1758447245404860700,3.970860595703125,0.23218086241185665,-0.3612598083980381,-0.005234393522143364
1758447245414833700,3.980833740234375,0.13928046039640904,-0.4251794689923525,0.00005786766707897186
1758447245424806000,3.990805908203125,0.02536532740294933,-0.40220498224869367,0.008562076640129089
1758447245434777900,4.00077783203125,-0.07212181788086891,-0.3541976149268448,0.008397825989127158
1758447245444749800,4.010749755859375,-0.2038531780719757,-0.2785873704083264,0.02349485735595226
1758447245454722800,4.020722900390625,-0.31568682861626146,-0.22525164767056702,0.037492987570166586
1758447245464694800,4.03069482421875,-0.36025486913919447,-0.16922639358788727,-0.0027227029621601103
1758447245474666800,4.040666748046875,-0.3078139032840729,-0.2179841408856213,-0.08687690394222736
1758447245484640000,4.050639892578125,-0.22943244048655032,-0.29723098834082484,-0.12766250331699847
1758447245494611700,4.06061181640625,-0.0700046795964241,-0.3418807157978415,-0.09678981066942215
1758447245504584000,4.070583984375,-0.03199555919766426,-0.3654173664689064,-0.10274959585666656
1758447245514555600,4.0805556640625,-0.04249649494588375,-0.3207037799954414,-0.04529927740693092
1758447245524528600,4.090528564453125,-0.02584814248383045,-0.2713422215856612,0.0638309593975544
1758447245534500900,4.1005009765625,-0.02420505145192146,-0.24396263175085187,0.18307517845928667
1758447245544472600,4.11047265625,0.00009235445857048034,-0.20232202298194168,0.2642500713676214
1758447245554445800,4.12044580078125,0.0046247371912002564,-0.21112989107668398,0.28244857588112354
1758447245564417800,4.130417724609375,-0.16942659233510493,-0.2801299236752093,0.16870587684512137
1758447245574389800,4.1403896484375,-0.2385655950129032,-0.29774814408272504,0.10343640907704829
1758447245584361700,4.15036181640625,-0.10864508363604546,-0.29078020476624367,0.12817395997047423
1758447245594334700,4.160334716796875,0.005941665008664131,-0.2757517085909843,0.17373334961831569
1758447245604306700,4.170306640625,0.028045360267162322,-0.26614465294256806,0.19117548280656338
1758447245614279000,4.18027880859375,0.033981180056929586,-0.24922961236834523,0.1803466302782297
1758447245624252000,4.190251953125,0.053020227047801016,-0.24094269940778612,0.1802759031295776
1758447245634223600,4.2002236328125,0.015075404056906699,-0.355249169806391,0.09992869321703911
1758447245644195800,4.21019580078125,-0.10549100351929663,-0.41104426839500663,0.026501053434610365
1758447245654167800,4.220167724609375,-0.13503449338972567,-0.3666441317848861,0.01625438470840454
1758447245664140800,4.230140869140625,-0.09942717343568801,-0.26715792163833973,0.07773498158752917
1758447245674112800,4.24011279296875,-0.11089081673622131,-0.18604995648637412,0.16251579003334043
1758447245684085000,4.2500849609375,-0.12936580010354518,-0.08675269304066896,0.19939327605366705
1758447245694057700,4.2600576171875,-0.10163900426626205,0.006445522877573967,0.2366612226963043
1758447245704029700,4.27002978515625,-0.05638064339160919,0.07219590603038668,0.2986544452726841
1758447245714002000,4.280001953125,0.05830547397434711,0.06355097341239452,0.34897827284336086
1758447245723973600,4.2899736328125,0.16167407851219176,0.03587225450053811,0.33544542205333705
1758447245733947000,4.29994677734375,0.23393208999335766,0.11853066396489739,0.3705354401350021
1758447245743918800,4.3099189453125,0.29703531963825225,0.2851633877977729,0.4761421789884567
1758447245753890800,4.319890869140625,0.434410238674283,0.6331991190940142,0.7235995209872722
1758447245763863800,4.32986376953125,0.4675152204185724,1.1640155759476125,1.0859037238717077
1758447245773835800,4.339835693359375,0.4903203419446945,1.4325262273691595,1.2476789246708153
1758447245783807700,4.349807861328125,0.5798930608421564,1.3382003225952386,1.2292214769601821
1758447245793780000,4.359780029296875,0.7270715810120105,1.394582719552517,1.3220856386184692
1758447245803753000,4.3697529296875,0.7617892586499452,1.7941044540666042,1.7610452111601829
1758447245813724700,4.379724609375,0.9318149859219789,2.3687143138088285,2.4569249505728483
1758447245823697000,4.38969677734375,1.334005208992958,2.687274213643372,3.0722458831489083
1758447245833670000,4.399669921875,1.7639105374634265,2.6885113542228933,3.3356144955068823
1758447245843641900,4.409641845703125,1.9653280128210782,2.7036796972602604,3.5437113024979827
1758447245853613800,4.41961376953125,2.06495392369926,2.6753543510079383,3.474913076081872
1758447245863585800,4.429585693359375,1.8751678494244812,2.700849442270398,3.4256992555797097
1758447245873558800,4.439558837890625,1.692194377774,2.691369081741571,3.4192595779210326
1758447245883530800,4.44953076171875,1.2703759096473455,2.63879659846127,3.204742382493615
1758447245893502700,4.459502685546875,0.5459960519373417,2.2444819310709834,2.8353993670135735
1758447245903475700,4.469475830078125,0.08971826484799385,1.722397354466468,2.2895383396327493
1758447245913448000,4.479447998046875,-0.21697744806110858,1.3769567542299628,1.648499028432369
1758447245923419600,4.489419677734375,-0.3771721016705036,1.2079594932228326,1.179880815207958
1758447245933392000,4.499391845703125,-0.2905284219622612,1.3431056302934885,1.0524860229164361
1758447245943364900,4.50936474609375,-0.44049803415536876,1.6612644019812344,0.849676216417551
1758447245953336800,4.5193369140625,-0.5359323385626077,1.622068117624521,0.6527572215229273
1758447245963308800,4.529308837890625,-0.5542983085975051,1.457442495830357,0.1999970871657133
1758447245973281800,4.53928173828125,-0.33718554371893406,0.8650953193455934,-0.7292974403679371
1758447245983253800,4.549253662109375,0.34097207652032374,-0.3835302385255694,-1.6731278582543134
1758447245993225700,4.559225830078125,0.549197478327155,-1.3289514327347278,-2.5721190174609423
1758447246003198000,4.569197998046875,0.11592530377209186,-1.4789283514514564,-3.0321336529910563
1758447246013170700,4.579170654296875,-0.08330985911041498,-1.2672975251153111,-2.698466346526146
1758447246023143000,4.589142822265625,0.15456278520226477,-0.9766790867820382,-2.279251338896155
1758447246033115000,4.599114990234375,0.4131131836235523,-0.7792781535893678,-2.09885911591053
1758447246043087600,4.609087646484375,0.443199986590445,-0.7934285517558455,-2.4315023400247098
1758447246053059800,4.619059814453125,0.4152382129535079,-0.8466513156384229,-2.6375767012774944
1758447246063031800,4.62903173828125,1.0549249405011534,-0.8725172860398888,-2.3937170915096995
1758447246073003800,4.639003662109375,5.559761786818504,-0.26388182257711884,-3.1550784801363942
1758447246082976800,4.648976806640625,10.726596268951893,0.47655835857391354,-2.726687063360214
1758447246092949000,4.658948974609375,4.700185230894387,-2.112854323515296,0.1841851855278015
1758447246102920700,4.668920654296875,2.642324188065529,-1.9775214317008851,-1.4569623110979795
1758447246112893700,4.678893798828125,1.814697306370735,-2.408843641231954,-3.5589708309501407
1758447246122866000,4.688865966796875,1.5897022638097404,-1.0755088788464664,-4.05444840952754
1758447246132838000,4.698837890625,1.7076508901029823,-0.9077239162385463,-2.361771216672659
1758447246142809900,4.708809814453125,2.298104800187051,0.14850684616416693,-0.8272107021093368
1758447246152782800,4.718782958984375,1.4061533303588627,1.3694918251767754,-0.2269850473344326
1758447246162754800,4.7287548828125,-0.753908150011301,2.4432655507937073,-0.3164700879484415
1758447246172726800,4.738726806640625,-1.319889005357027,2.397153495699167,-0.8357008825570345
1758447246182700000,4.748699951171875,-0.3375692823395133,1.3157333469823003,-0.9950164152443408
1758447246192671700,4.758671630859375,0.40403438963294025,-0.2644257201954722,-1.1187421636343002
1758447246202644000,4.76864404296875,2.7276883493572472,-1.7017270530119537,-0.6755781251400709
1758447246212615700,4.77861572265625,4.324499860650301,-2.7507912847861644,0.2852525273859501
1758447246222588700,4.788588623046875,3.2149937273949383,-2.679597687666118,1.0368868872463703
1758447246232561000,4.798560791015625,2.0277900219529865,-2.238287168084085,1.56134564563632
1758447246242532600,4.80853271484375,0.7839071285642683,-1.3840645404085516,1.5273329013973473
1758447246252505900,4.818505859375,-0.13988193342089653,-0.6102852764964103,0.9243196617305278
1758447246262477800,4.828477783203125,-0.5556948775224387,-0.44639527550041674,0.5442319648742675
1758447246272449800,4.83844970703125,-0.888206657276675,-0.2033691939473152,0.1843804158389568
1758447246282421800,4.848421875,-0.9033797495543956,-0.07607406263798475,-0.9282897344052791
1758447246292394800,4.858394775390625,-0.7138666470021009,-0.2703244228452444,-1.5796914496660233
1758447246302366700,4.86836669921875,-0.5912029018204659,-0.6719371382892131,-1.8499451453626155
1758447246312339000,4.8783388671875,-0.7832797173809259,-1.0511553588345646,-2.5902707602232695
1758447246322312000,4.88831201171875,-1.3861827016063033,-0.8814049413725733,-3.235686386811733
1758447246332283600,4.89828369140625,-0.26988193977475167,1.3761670651569962,-1.5397516534656286
1758447246342255900,4.908255859375,1.4884313622035086,2.2357272544682023,0.14861702854037284
1758447246352227600,4.9182275390625,2.34421495558545,1.7767583285987376,0.7824281420528888
1758447246362200800,4.928200927734375,2.2852894500166174,2.093623553344607,0.7426525965034961
1758447246372172800,4.9381728515625,1.6287965490967033,2.354342820237577,-0.6282382818162441
1758447246382144800,4.948144775390625,0.24002872636802494,1.6005883994832635,-2.45677180583775
1758447246392116700,4.95811669921875,0.07852050594203173,0.44432431444525716,-4.329057962346076
1758447246402089700,4.96808984375,1.4865069700121878,-0.9667100659534335,-6.07223609290421
1758447246412061700,4.978061767578125,2.1213719764918086,-1.4840522703364492,-6.433371252009272
1758447246422033700,4.98803369140625,0.15655132867097854,-3.803799285750091,-9.14959011284709
1758447246432007000,4.9980068359375,-0.7802519670575857,-6.711064157795906,-11.865240233886242
1758447246441978600,5.007978515625,-0.6952735902130603,-0.7975804107382893,-8.410981238776445
1758447246451950800,5.017950927734375,-3.485497013938427,3.5607574221059677,-3.6398400189101694
1758447246461922800,5.0279228515625,1.000545992320776,5.433411535143852,4.7115118038117885
1758447246471895800,5.037895751953125,2.797684261125326,4.7799590248331425,11.178611722421646
1758447246481867800,5.04786767578125,-1.1748907518357037,3.366190251034498,15.924119319337606
1758447246491840000,5.057840087890625,-1.9077385781615972,4.047609211157262,12.341279537022112
1758447246501812700,5.067812744140625,-0.8671984291046857,0.8593018306359648,10.539514192938803
1758447246511784700,5.07778466796875,0.9061960490841418,-2.7626822135880587,7.873515699297189
1758447246521757000,5.0877568359375,1.0100375318307429,-2.994820990423858,4.289963384798169
1758447246531728600,5.097728759765625,-0.7013274834245443,-2.7252394949004053,3.6183904036462304
1758447246541702000,5.107701904296875,-0.44105749466903504,-2.277090653730929,4.700460248443484
1758447246551673900,5.117673828125,2.061818548282981,-0.9114107880577444,4.718271799466014
1758447246561645800,5.127645751953125,3.272210821610689,0.24839199250042437,5.239708579686284
1758447246571618800,5.137618896484375,2.7965257387399673,0.20758827294707297,6.315964185246825
1758447246581590800,5.1475908203125,1.2746727300584315,0.8119061654716729,6.06999678954482
1758447246591562800,5.157562744140625,-1.2238112154144793,1.7382766222521662,3.4324756178468463
1758447246601534700,5.16753466796875,-2.7993817126929756,2.2984862007200717,0.9729156425952911
1758447246611508000,5.177508056640625,-0.4649024075716734,1.9004770627260208,2.7843869726568458
1758447246621480000,5.18747998046875,-0.8390764964699745,0.9396867422103882,3.0714106013685463
1758447246631452200,5.1974521484375,0.06633095495316665,0.5976081657528877,2.7666052322506904
1758447246641425200,5.207425048828125,1.166098958092928,0.23338556202650068,3.7772184450775383
1758447246651396900,5.21739697265625,2.3148645040690896,-1.2534545854628085,1.0537976900368928
1758447246661369000,5.227369140625,2.483391517215967,-2.6902029605716464,-3.6560710227429865
1758447246671341000,5.237341064453125,2.508556353610754,-2.101815627628565,-5.54283520193696
1758447246681314000,5.24731396484375,-0.049373468043282624,-2.223769690170884,-3.3253806862622497
1758447246691286000,5.2572861328125,-0.6851637726742774,-0.540038604837656,-5.370000262463092
1758447246701258200,5.26725830078125,-1.1357995352886616,1.864634764972329,-8.603612765610217
1758447246711231000,5.27723095703125,-2.9019465996325016,1.605311628612876,-10.370556971681117
1758447246721203200,5.287203125,-3.7813457541406152,0.12105506787598132,-9.775199215203523
1758447246731175200,5.297175048828125,-3.413118006426096,-0.9208271434396504,-7.273463647523522
1758447246741147100,5.307147216796875,-1.7353928835093975,-3.051774757528305,-4.548367652747035
1758447246751120100,5.3171201171875,-1.057928579296544,-3.811412391102314,-1.8082859780237077
1758447246761092000,5.327092041015625,-0.8075742737472057,-4.148904808813334,0.13591449109464884
1758447246771064000,5.33706396484375,-0.5162496964385733,-4.808310382309556,2.1524591886729
1758447246781036000,5.3470361328125,0.6033043315678834,-5.540262136578559,3.108023298972845
1758447246791009300,5.35700927734375,2.489524905404448,-6.024779929724335,3.494000930650532
1758447246800981000,5.36698095703125,4.826397827664017,-3.471572533482313,5.695433409067988
1758447246810953200,5.376953125,5.908508588993549,-0.7376555188685655,6.803043937835097
1758447246820926200,5.38692626953125,5.537535926485061,-0.7055044768482446,6.269004281151294
1758447246830898000,5.39689794921875,2.3133079222768544,-1.371881642922759,5.8061927083790295
1758447246840870100,5.4068701171875,-0.20855222260840237,-2.511668932673335,5.15623885383904
1758447246850842000,5.416842041015625,-1.7897633561223745,-2.778625924912095,4.6383396000951524
1758447246860815000,5.426815185546875,-0.6437673479247837,-1.6927496735692023,3.859486101658642
1758447246870787000,5.436787109375,0.654587359559536,7.609220035222172,3.929131008031964
1758447246880759000,5.446759033203125,0.8373176701039076,15.161631557029486,4.22800581805706
1758447246890732000,5.45673193359375,2.196111867916584,20.657342604219913,5.124453137999772
1758447246900704300,5.466704345703125,4.4405765555918215,18.178463595992326,0.45554158176928755
1758447246910676000,5.476676025390625,5.420469635984301,11.772337493783235,-5.445730918490886
1758447246920648200,5.486648193359375,4.28548536260128,7.121626487892866,-7.877716073596477
1758447246930621200,5.49662109375,0.42958910212814805,3.7633606001168487,-5.569238055694103
1758447246940593000,5.506593017578125,-3.9173879632681605,2.14078511749208,0.13045914829820393
1758447246950565000,5.516565185546875,-3.9446635082066055,0.1266460197508335,1.1915846970051527
1758447246960538000,5.5265380859375,-1.497118380397558,-1.8574661885172128,0.06531155334413051
1758447246970510000,5.536510009765625,-0.09983392760567367,-2.307667286041379,-0.5051327111512423
1758447246980482000,5.54648193359375,0.2431576720435172,-1.9179747254937887,-0.37995471812635656
1758447246990454300,5.556454345703125,0.22352752729170022,-1.4525778124034403,-0.09114216017127036
1758447247000427000,5.566427001953125,0.21165881032161413,-0.8887123417764902,-0.05264642529934645
1758447247010399000,5.57639892578125,0.24510873304605482,-0.26283786648213864,0.18530396042466163
1758447247020371200,5.58637109375,0.3186784481802955,0.1258183367550373,0.2565738376513123
1758447247030344000,5.596343994140625,0.322530410900712,0.38994916565716264,-0.010909516549110413
1758447247040316200,5.606316162109375,0.1530629385659471,0.5524690473437309,-0.2837929762274027
1758447247050288000,5.6162880859375,-0.16655951246619224,0.5647632962495088,-0.4775619826585054
1758447247060260000,5.626260009765625,-0.4975900406867265,0.5053694425165653,-0.4599129287213087
1758447247070233000,5.636233154296875,-0.5753337170373648,0.38434009360373017,-0.32198797458708284
1758447247080205300,5.646205322265625,-0.4227284956436604,0.2692313669115305,-0.3528656356707215
1758447247090177000,5.656177001953125,-0.07413483820371329,0.22230419604182242,-0.3484402204439044
1758447247100149200,5.666149169921875,0.41360301296710966,0.15156243434250355,-0.21240882497131824
1758447247110122200,5.676122314453125,0.8153799059968442,0.16597499057650564,0.051311669564247125
1758447247120094000,5.686093994140625,1.0247205755691975,0.21333704573214052,0.23851298804283141
1758447247130066200,5.696066162109375,0.9611364305395632,0.22660452358424663,0.39808395679593084
1758447247140039200,5.7060390625,0.6853758810549974,0.16844576460421085,0.5305667198762297
1758447247150011100,5.71601123046875,0.32592933262400325,0.1514466990083456,0.6592842852041125
1758447247159983000,5.725983154296875,0.14300320724658666,-0.09907119960486889,0.4467319601088762
1758447247169955000,5.735955078125,-0.044455812320113176,-0.47508244080245493,0.137670979373157
1758447247179928000,5.745927978515625,-0.3214152162004262,-0.5894347961694002,0.09468407056182622
1758447247189900000,5.755900146484375,-0.5261689963739365,-0.5315753123968839,0.14919716651588677
1758447247199872000,5.7658720703125,-0.6555377921521663,-0.48520635993182654,0.0861784002840519
1758447247209845000,5.775844970703125,-0.8928583555400371,-0.33875381594896314,0.07718640779405832
1758447247219817200,5.785817138671875,-1.1076700769346206,-0.12995675173401833,0.17679332171082496
1758447247229789000,5.795788818359375,-1.118791263473034,-0.014124386942386626,0.22929361653774977
1758447247239761200,5.80576123046875,-0.9474521155148744,-0.027559038054943082,0.22109218990355728
1758447247249734100,5.815734130859375,-0.6476297955065965,-0.08173194226920605,0.16201953094899654
1758447247259706000,5.8257060546875,-0.38858489156663417,-0.06659399437010288,0.16278671592921018
1758447247269678000,5.835677978515625,-0.2372113308597356,-0.02802665556669235,0.1797957183972001
1758447247279651000,5.845651123046875,-0.14889116930663585,-0.030111645147204397,0.15461042373627423
1758447247289623000,5.855623046875,-0.014294409747049212,-0.04714812014400959,0.10463906286507844
1758447247299595000,5.865594970703125,0.11157419589050113,0.01564355933368206,0.06850771903693675
1758447247309567000,5.87556689453125,0.20122407167740164,0.015322656816244125,0.04652969598472118
1758447247319540000,5.8855400390625,0.2391098579574376,-0.02945756515264511,0.015404197619855403
1758447247329512200,5.89551220703125,0.28088724484853445,0.08246668628454208,0.07162877366691828
1758447247339484000,5.90548388671875,0.30187172681875524,-0.017017185774445533,-0.04288724782913923
1758447247349456100,5.9154560546875,0.2072037306088954,-0.0862561416953802,-0.05064999078512192
1758447247359429000,5.92542919921875,0.1269166533857584,0.07242401569783687,0.06952975556105374
1758447247369401000,5.935401123046875,0.09537344106547534,0.20498305888473986,0.08769552684873343
1758447247379373000,5.945373046875,0.08900449055545032,0.3409428504258394,0.09262947611957788
1758447247389346000,5.955345947265625,0.12215513807237148,0.8722861076325178,0.40451311306059357
1758447247399318000,5.965318115234375,0.21096571349091828,1.0681716678261757,0.638967765623331
1758447247409290000,5.9752900390625,0.201560025633499,0.9624515317261219,0.6932648807391524
1758447247419262200,5.98526220703125,0.19743739274553954,1.2807272077918053,0.9046452394455671
1758447247429235000,5.99523486328125,0.3562502366077155,1.504080620625615,0.720403355294466
1758447247439207200,6.005207275390625,0.43161213238835333,0.7360632812410592,-0.3155783998057246
1758447247449179100,6.01517919921875,0.3435802497247234,-0.9340624725878238,-1.3139929330557585
1758447247459152000,6.02515185546875,0.15773147836625576,-2.0604501825392245,-1.7170289593011139
1758447247469124000,6.0351240234375,-0.1336626935798675,-2.237714044371247,-1.3491183147117494
1758447247479096000,6.045095947265625,-0.4251519964635372,-1.7949691080719232,-0.692778850787878
1758447247489068000,6.055068115234375,-0.530978515547514,-0.9477017063617705,-0.6189741943866014
1758447247499041000,6.065041015625,-0.8109902196705341,-0.3243652251124382,-0.563179534189403
1758447247509013200,6.07501318359375,-1.077453290912509,0.11494856769442557,-0.3807873695582151
1758447247518985000,6.08498486328125,-1.057297807112336,0.3443921140968799,-0.3575903261050582
1758447247528958200,6.094958251953125,-1.0103104304879904,0.13828501961827278,-0.21540625322163104
1758447247538930200,6.10493017578125,-0.7684966473340987,-0.0983387936770916,0.03147562697678804
1758447247548902100,6.114902099609375,-0.2808346744110808,-0.6302735870361328,-0.5222255925104021
1758447247558874000,6.1248740234375,0.08802026529107242,-0.6279658946156501,-0.04134089516997337
1758447247568847000,6.13484716796875,0.293643339112401,0.014117372679710386,0.8730673211380838
1758447247578819000,6.144819091796875,0.722605833774805,0.1741869386047125,0.5538119863852858
1758447247588791000,6.154791015625,0.7923533968050033,0.5370189647555351,0.6991618298232555
1758447247598763000,6.164762939453125,0.6558973461795597,0.7248562430500983,1.0042129903957246
1758447247608736000,6.174736083984375,0.5129441886197775,0.23779227255284785,0.8666790814056992
1758447247618708200,6.184708251953125,0.3853331232290715,-0.14643793093562124,0.9299775413617491
1758447247628679700,6.1946796875,0.35981129009015855,-0.49352352190017695,0.8365621755614876
1758447247638652700,6.204652587890625,0.3459160357285291,-0.6653554218113422,0.6655708181276917
1758447247648624600,6.214624755859375,0.299835179489851,-0.7125649167537689,0.43252895497232674
1758447247658596900,6.224596923828125,0.39206571941971774,-0.6359557243257761,0.47731385311633345
1758447247668568600,6.234568603515625,0.3646281888525933,-0.5240688822895289,0.6591872545704245
1758447247678541600,6.24454150390625,0.4008494029212743,-0.28115912059247494,0.7110846150681376
1758447247688513800,6.254513671875,0.4040151004105806,0.40220132898688316,1.1415016924530268
1758447247698485500,6.264485595703125,0.6082148999631405,0.9019622839719057,1.4665373641729353
1758447247708458800,6.274458740234375,1.159057734344527,0.45351358307302,0.853615017171204
1758447247718430700,6.2844306640625,1.5651216570436954,-0.18248948752582073,0.04973258367925882
1758447247728402700,6.294402587890625,1.6479665289908647,-0.28001988742947576,-0.17068828283399343
1758447247738374700,6.304374755859375,1.698039596670866,-0.2449929977118969,-0.44149668980389833
1758447247748347600,6.31434765625,1.357121880686283,-0.31969138808250425,-0.6014969898849726
1758447247758319600,6.324319580078125,1.001727457190305,-0.08485854985713959,-0.24685382314771412
1758447247768291600,6.33429150390625,0.9050070584952831,0.04629997888207436,-0.07516717692613602
1758447247778264800,6.344264892578125,0.8481604780923575,0.026704467052221296,0.011587854202091694
1758447247788236500,6.354236572265625,0.6686544633567333,0.061222238203883166,0.1602045904815197
1758447247798208800,6.364208740234375,0.6986177130091935,-0.005581599524617195,0.07789163345396519
1758447247808180500,6.374180419921875,0.747269223453477,0.019277531921863555,0.1320776894107461
1758447247818153700,6.38415380859375,0.7105068151801824,-0.08218319316804408,0.09291121567040682
1758447247828125700,6.394125732421875,0.7011264809597283,-0.13531915555000304,0.12575783873945473
1758447247838097700,6.40409765625,0.7543127852894366,-0.20008242736160753,0.13083908752650023
1758447247848069600,6.414069580078125,0.8201789037764072,-0.26729367684721944,0.13814327306002377
1758447247858042600,6.424042724609375,0.8755764544147998,-0.3091746702432632,0.23640812471807002
1758447247868014600,6.4340146484375,0.9497815083105117,-0.4563181190997362,0.2811979912981391
1758447247877986600,6.443986572265625,1.0538310808498412,-0.5530898095905781,0.2901891070052981
1758447247887959800,6.453959716796875,1.1157863095033913,-0.6009305881738662,0.2577554486513138
1758447247897931500,6.463931640625,1.0116934092789889,-0.5776601872235536,0.20537322724610566
1758447247907903700,6.47390380859375,0.7982353675156831,-0.5809656585097313,0.15663725338876247
1758447247917875700,6.483875732421875,0.6534194117587059,-0.5999532675743102,0.06853080765157937
1758447247927848700,6.4938486328125,0.5396937369227409,-0.5012649298071861,-0.07079056927710771
1758447247937820700,6.503820556640625,0.40172150958068664,-0.38352585461139677,-0.14409312137514352
1758447247947793000,6.51379296875,0.29074944430179894,-0.2910948236733675,-0.2617439337655902
1758447247957765600,6.523765625,0.18330379958339035,-0.1507622238755226,-0.3428931077107787
1758447247967737600,6.533737548828125,0.10436755244731903,0.18019290102124214,-0.3643777942880988
1758447247977709800,6.543709716796875,0.025660437892004846,0.6539788722723722,-0.35619945626854893
1758447247987681500,6.553681640625,-0.032513957048580046,1.1562643772989512,-0.38866730915307995
1758447247997654800,6.56365478515625,-0.05072473652176559,1.4488228437840938,-0.5241629903137683
1758447248007626800,6.573626708984375,-0.04037058883309364,1.4714403337836264,-0.7399740249440073
1758447248017598700,6.5835986328125,-0.0010305120915174483,1.2424772643744946,-1.0131520836547017
1758447248027571700,6.59357177734375,0.06540683041214942,0.9143465492486953,-1.1932096678584814
1758447248037543700,6.603543701171875,0.17237557833380995,0.6330974122852087,-1.2750804340764879
1758447248047515600,6.613515625,0.15729542503654956,0.41086335887014863,-1.3489765681535004
1758447248057487600,6.623487548828125,0.07639416143782436,0.218231832036376,-1.3902721628770232
1758447248067460900,6.6334609375,-0.014119126245379447,0.028200843089818954,-1.3692533402457832
1758447248077432600,6.6434326171875,-0.17850312130339444,-0.05715513489544391,-1.3007891680896282
1758447248087404800,6.65340478515625,-0.3519967438817024,-0.027465514552593228,-1.0743716915100812
1758447248097376500,6.66337646484375,-0.45903848397433755,0.01691372539997101,-0.8195604796171188
1758447248107349800,6.673349853515625,-0.44795828703343865,-0.09235270500481128,-0.6560188536673783
1758447248117321700,6.68332177734375,-0.3480431839503348,-0.2526175012409687,-0.597225303915143
1758447248127293700,6.693293701171875,-0.22793825640603899,-0.30938276003599163,-0.5873439613699912
1758447248137266700,6.7032666015625,-0.035829292141646145,-0.29985856036543845,-0.6092585637971758
1758447248147238700,6.71323876953125,0.11648761382997035,-0.2998690817594528,-0.6749672997653484
1758447248157210600,6.723210693359375,0.2796265041977167,-0.2513888362288475,-0.6724474258989095
1758447248167182600,6.7331826171875,0.514881367227435,-0.11906301727592944,-0.558565610653162
1758447248177155800,6.74315576171875,0.8239296346120536,-0.019221417820453644,-0.3970528601825237
1758447248187127600,6.75312744140625,1.203953618582338,0.014987141251564026,-0.2540297061264515
1758447248197099800,6.763099853515625,1.6255337479084728,0.033767829567193985,-0.17625526931136845
1758447248207072800,6.77307275390625,1.9768629677921532,0.16809680503606794,-0.10514262847304344
1758447248217044500,6.78304443359375,2.1870582083672283,0.36593174573183057,-0.06128478204607963
1758447248227016700,6.7930166015625,2.2937328687131404,0.5011667301297188,-0.1297378482863307
1758447248236988700,6.80298876953125,2.304623096039891,0.3946481371283531,-0.38988165337890385
1758447248246961700,6.812961669921875,2.2319044813096522,0.2554033325672149,-0.7123118187755346
1758447248256933600,6.82293359375,2.1413135252803563,0.24500410362780092,-0.9962120547696948
1758447248266905900,6.83290576171875,2.0165407520554957,0.3727238900899887,-1.1284990030169486
1758447248276877600,6.842877685546875,1.792989478562027,0.49940088950097555,-1.154871461635828
1758447248286850800,6.852850830078125,1.6367368405766785,0.3882207344293594,-1.2701736650735138
1758447248296822800,6.86282275390625,1.5145209122277796,0.2813373997688293,-1.366430099518597
1758447248306794800,6.872794677734375,1.4557055890351533,0.38747488449811934,-1.3363453423783183
1758447248316767700,6.882767822265625,1.4328702185012399,0.5992553484380245,-1.2481965188041328
1758447248326739700,6.89273974609375,1.3975335321821272,0.8275310201048851,-1.1514236592695117
1758447248336711700,6.902711669921875,1.3738310234248636,0.9398404714673757,-1.1221227459833025
1758447248346683600,6.91268359375,1.3406262345679103,0.8585089266926049,-1.1589791892156005
1758447248356657000,6.922656982421875,1.3233306702435015,0.7049000812143087,-1.2443103250205516
1758447248366628600,6.932628662109375,1.2738579065442084,0.6096463940709829,-1.293014150173962
1758447248376600800,6.942600830078125,1.1558774238079785,0.634478637510538,-1.2860595087304711
1758447248386573800,6.95257373046875,0.9890269655711948,0.6776391493231058,-1.2558993482664227
1758447248396545500,6.962545654296875,0.8981298662021756,0.6450456242322922,-1.30241735381335
1758447248406517800,6.972517822265625,0.8758261183269321,0.5555728585779667,-1.4107181540563702
1758447248416489700,6.98248974609375,0.915882088252902,0.5320598810434342,-1.5260256181910634
1758447248426462700,6.992462646484375,0.9418915587782859,0.7648585830926895,-1.5531693534433841
1758447248436434700,7.0024345703125,0.8674277078159153,1.2391431515157223,-1.4840256745904683
1758447248446406700,7.01240673828125,0.7129886951237917,1.7997779696583747,-1.359734985794127
1758447248456378600,7.022378662109375,0.5314069700926543,2.2768396015793084,-1.3003738652870058
1758447248466351900,7.032351806640625,0.4310030605792999,2.5868758570879695,-1.3928075265735387
1758447248476323600,7.042323486328125,0.3878641760766506,2.663447055593133,-1.5483558156818151
1758447248486295800,7.0522958984375,0.4536334100604057,2.590631410229206,-1.726721501275897
1758447248496268800,7.062268798828125,0.49530777496844525,2.3723089772999284,-1.9679303042739629
1758447248506240500,7.072240478515625,0.5499316378206014,2.2383044114798305,-2.149657867516577
1758447248516212700,7.082212646484375,0.8306634729117155,2.3262211798638104,-2.262688618890941
1758447248526184400,7.092184326171875,1.4184332584783435,2.4171920751214024,-2.3262904457077385
1758447248536157700,7.10215771484375,1.9588062098369001,2.5214813016355038,-2.344042083236575
1758447248546129700,7.112129638671875,2.3099868150301277,2.5254262398689984,-2.5163977147608994
1758447248556101600,7.1221015625,2.559083010277152,2.537057056429982,-2.7516736205786465
1758447248566074600,7.13207470703125,2.7568752808749672,2.798241310486197,-2.6342750293835997
1758447248576046600,7.142046630859375,2.9112767380356788,2.6122102048307654,-2.615611245445907
1758447248586018600,7.1520185546875,2.8748347208231686,2.3172879318237305,-2.5080986729711294
1758447248595990800,7.16199072265625,2.6950933629617095,2.00219556196928,-2.2005744002833962
1758447248605963800,7.1719638671875,2.4536069120660424,1.5007295566320418,-1.7983198798045514
1758447248615935500,7.181935546875,2.1488709549225864,0.8630109142869711,-1.3113953177779911
1758447248625908200,7.191908203125,1.8806876357592641,0.38080256712734695,-0.7381406720370054
1758447248635881200,7.201881103515625,1.6917625622279941,-0.031111762100458143,-0.16731296118199823
1758447248645853200,7.211853271484375,1.5698188749492168,-0.39153555806577206,0.34275077663064
1758447248655825200,7.2218251953125,1.4217797924272715,-0.502180875608325,0.9536787349447607
1758447248665797000,7.231797119140625,1.1025088217139243,-0.38017712870538234,1.5174550659835337
1758447248675770400,7.241770263671875,0.806495830860734,-0.08831833492219447,1.8988067914262412
1758447248685742000,7.2517421875,0.6995715796679258,0.1751578294634819,1.9496663333088158
1758447248695714300,7.26171435546875,0.6339625046819448,0.497857751712203,2.070481747210026
1758447248705686300,7.271686279296875,0.4654769925892353,0.9043085548371076,2.045463918070495
1758447248715659300,7.2816591796875,0.6351648662090301,1.1712614554226397,1.8703870448887348
1758447248725631200,7.29163134765625,1.1709668563902378,1.2040841130942106,1.5384408631280064
1758447248735603500,7.301603515625,1.4959633651435373,1.0519009165048598,1.0541428502127528
1758447248745576200,7.311576171875,1.292283205550909,0.8439671911209822,0.6150310097187757
1758447248755548200,7.321548095703125,0.975434858874604,0.5686965440452099,0.43510991137623783
1758447248765520400,7.331520263671875,0.658052405321598,0.5611299081832171,0.3133423113167286
1758447248775492000,7.3414921875,0.4330139620102942,0.8117623730868101,0.43484424617737527
1758447248785465300,7.35146533203125,0.3296843743085861,0.9372527930617331,0.9107064391806721
1758447248795437300,7.361437255859375,-0.26316344517469403,0.863723446470499,1.106610996335745
1758447248805409300,7.3714091796875,-0.8251159217871725,0.4330757752001285,0.6451794797450303
1758447248815382300,7.38138232421875,-1.006400271306932,0.16727438273727893,0.5935103750452398
1758447248825354000,7.39135400390625,-1.143847086535394,0.18258418007194996,0.6182052558407187
1758447248835326200,7.401326171875,-1.558663859206438,0.11151567063629626,0.07785363953113555
1758447248845298200,7.411298095703125,-1.8246135740987957,0.2052647984355688,-0.2998880787208676
1758447248855271200,7.421271240234375,-1.871066405455023,0.2057797622203827,-0.458694492842257
1758447248865243100,7.4312431640625,-1.9408765853926537,-0.05019523275494575,-0.5263464718326926
1758447248875215400,7.44121533203125,-1.7409107701480389,-0.4718664013653993,-0.0763498108394444
1758447248885187000,7.45118701171875,-1.7882617193877697,-1.1706950537115335,0.48576253250986334
1758447248895160300,7.461160400390625,-1.3700962208107113,-1.9239006084114312,1.1384589637562632
1758447248905132300,7.47113232421875,-1.2498565609708427,-2.5163410161376,1.5003374885745346
1758447248915104300,7.481104248046875,-1.645632825346291,-2.9291601852506397,1.778977173691988
1758447248925077200,7.4910771484375,-2.3123396617665883,-3.317452231350541,1.9611076186470686
1758447248935049200,7.50104931640625,-2.878649895197153,-3.5895354805618522,1.9596540588378906
1758447248945021200,7.511021240234375,-3.1070427635028954,-3.886401873373985,1.9330932380400596
1758447248954993200,7.5209931640625,-3.041005818493664,-4.091384932258725,1.8709100458495318
1758447248964966400,7.53096630859375,-2.797333840252459,-4.2388177194505925,1.7376209348224103
1758447248974938000,7.540938232421875,-2.396553776240349,-4.4115807627320285,1.5589356618851422
1758447248984910300,7.550910400390625,-1.873236296840012,-4.5350557512313125,1.4988339521437883
1758447248994883300,7.56088330078125,-1.3927423523828386,-4.44164213899672,1.5251073343023658
1758447249004855000,7.57085498046875,-1.011070308944583,-4.146823910886049,1.4337832416929304
1758447249014827300,7.5808271484375,-0.5674173178896308,-3.71072791108191,1.1461346129506826
1758447249024799200,7.59079931640625,-0.037036475974321366,-3.1778456077396866,0.7290785369202494
1758447249034772200,7.600772216796875,0.6781462220624089,-2.5165637189775705,0.21352906117290257
1758447249044744200,7.610744140625,1.2383517088770866,-1.6216057608097791,-0.2686947758167982
1758447249054716200,7.620716064453125,1.936464760299772,-0.6409370198696851,-0.6931580593638121
1758447249064689200,7.630689208984375,2.722944661961496,0.4828291094064712,-1.2019251814946532
1758447249074661400,7.640661376953125,3.467014431786537,1.5620271981596945,-1.793640635947138
1758447249084633000,7.650633056640625,4.117659775722027,2.697621127873659,-2.7085952340915798
1758447249094605300,7.660605224609375,4.2725805805817245,3.5575042655289173,-3.283571589058637
1758447249104578300,7.670578369140625,4.144904341000318,4.082358160716295,-3.505151854740083
1758447249114550000,7.680550048828125,4.126930292892456,4.596805812701582,-3.617554245083034
1758447249124522200,7.690522216796875,3.9593209791123867,4.752854452547431,-3.4698353344261643
1758447249134494200,7.700494140625,3.7304081785857677,4.329824855065345,-2.9899598141282797
1758447249144467200,7.71046728515625,3.6653228352129457,3.0130285550266502,-2.123639336901903
1758447249154439200,7.720439208984375,3.388149569386244,1.6878063719481229,-0.8243649572893976
1758447249164411400,7.730411376953125,2.267748678759485,1.4170382969886064,0.9099901076048612
1758447249174384000,7.740384033203125,0.5654654531694948,2.202697676047683,3.2337738311886786
1758447249184356000,7.750356201171875,-0.6868472687818109,3.6094741067409513,4.900239601205289
1758447249194328300,7.760328369140625,-1.096544506482035,5.519290075698494,6.106071727010607
1758447249204300300,7.77030029296875,-1.2460522002518177,6.7968421605855225,7.259503511232137
1758447249214273300,7.780273193359375,-2.0731167718887327,5.721078722456097,6.546787787830829
1758447249224245200,7.790245361328125,-2.8594577034711834,2.022966547319293,4.671330600070953
1758447249234217200,7.80021728515625,-3.0218776319146157,-1.2312404155671597,3.4708702304318546
1758447249244189200,7.810189208984375,-2.6589678643524643,-2.4935364791333674,2.723665961973369
1758447249254162400,7.820162353515625,-2.1103508162617683,-3.718682084956765,1.7439181352704762
1758447249264134100,7.830134033203125,-1.6149392886579035,-4.743386366978288,1.0960279352620244
1758447249274106400,7.8401064453125,-1.2710393419921397,-5.280198410984873,0.7065063473671674
1758447249284079400,7.850079345703125,-1.1903180380702019,-5.466439359998703,0.4552253554269671
1758447249294051000,7.860051025390625,-0.980902695826441,-5.131535205215215,0.5747735258713365
1758447249304023300,7.870023193359375,-0.8708370778679847,-4.517676746407151,0.7123103574708104
1758447249313995000,7.8799951171875,-0.9803203658938408,-3.8867280365884302,0.6996291550740599
1758447249323968300,7.88996826171875,-1.042847841477394,-3.066645578923821,0.7440531109511852
1758447249333940200,7.899940185546875,-1.2273206117749214,-2.1456734740555286,0.9372826036781072
1758447249343912200,7.909912109375,-1.6632780798912048,-1.1673936740785837,1.4799316832751035
1758447249353885200,7.91988525390625,-2.05454651145339,-0.24076398184001443,1.991968182465434
1758447249363857200,7.929857177734375,-2.0774691218793393,0.4745967031121254,2.120879516799748
1758447249373829000,7.9398291015625,-2.142994025713205,0.8339899869859219,1.9257935825511812
1758447249383801300,7.94980126953125,-2.6403426588594914,0.8092080124288797,1.459398598334193
1758447249393774300,7.9597744140625,-2.7558324938237666,0.46179275111854073,0.7021215564116835
1758447249403746000,7.96974609375,-2.6910382423520085,0.15655074414908884,-0.027233459362387656
1758447249413718300,7.97971826171875,-2.5430630188465115,0.008949614652991295,-0.7842939359247684
1758447249423691300,7.989691162109375,-2.23707516194582,-0.1856049891978502,-1.4251128823727368
1758447249433663200,7.999663330078125,-2.2219395521342755,-0.03613514322042465,-1.5219503315761684
1758447249443635200,8.00963525390625,-2.458851534721255,0.308981193497777,-0.9410340651661157
1758447249453607400,8.019607421875,-1.8805951351702213,0.28897476277947426,-0.48362376691550013
1758447249463580200,8.029580078125,-0.6847440128922462,0.17252748095989226,-0.7234291328564286
1758447249473552100,8.03955224609375,0.6684925507932901,0.22419337078928947,-1.0658607605352997
1758447249483524400,8.0495244140625,1.883974840736389,0.5180395389974117,-1.0906199387386442
1758447249493496000,8.05949609375,2.560104754540324,0.7992915985703468,-1.3251318744465708
1758447249503469300,8.06946923828125,2.5448352892160413,1.0381424402654171,-1.5808476339638233
1758447249513441300,8.079441162109376,2.2499498410880565,1.3194979602128267,-1.392590668952465
1758447249523413200,8.089413330078125,1.8977263027131557,1.3029291027277707,-1.4718240724042058
1758447249533386200,8.09938623046875,1.7063183263249695,0.9939783043682575,-1.7899951190516352
1758447249543358200,8.109358154296874,1.462994576999545,0.5821078142821788,-2.1012574092239142
1758447249553330200,8.119330078125,1.1925832065232098,0.18863047449886797,-2.2702222292661665
1758447249563302400,8.129302490234375,0.9659726915895939,-0.06192191090583801,-2.121232275760174
1758447249573275400,8.139275390625,0.8806150331038981,-0.2109463512033224,-1.8745055861234663
1758447249583247000,8.1492470703125,0.9940643021512776,-0.16893267133831977,-1.6004595124065875
1758447249593219300,8.15921923828125,1.07888712310791,0.08811492130458354,-1.28128688750118
1758447249603191000,8.16919091796875,1.1343373537816106,0.4374123430997133,-1.0037450806230306
1758447249613164300,8.179164306640626,1.0802100422747432,0.7167167757362127,-0.8796554673567414
1758447249623136300,8.18913623046875,1.0830917351908982,0.7736305030912161,-0.820645644505322
1758447249633108200,8.199108154296875,1.1881208202868698,0.6603600977420806,-0.7239768298670649
1758447249643081200,8.209081298828124,1.2656833679169415,0.5578635998636484,-0.6066682550430298
1758447249653053200,8.21905322265625,1.553019277448207,0.5385200169682502,-0.36446401126682754
1758447249663025200,8.229025146484375,2.02106495148167,0.5686965440452099,-0.22506489292681217
1758447249672997000,8.2389970703125,2.3862387184530496,0.8296253620356321,-0.18422259492874143
1758447249682970400,8.248970458984376,2.520455465719104,1.3794997167110443,-0.3633113341003656
1758447249692942000,8.258942138671875,2.5837328828871247,2.036813870885968,-1.1200924091994762
1758447249702914300,8.268914306640625,2.5696359684735537,2.4031711485534903,-1.9661404982477426
1758447249712887300,8.27888720703125,2.402831102944165,2.522492524504661,-2.610727272796631
1758447249722859300,8.288859375,2.2730859481342134,2.4546096593677995,-3.185900027118623
1758447249732831200,8.298831298828125,2.272671522114426,2.2865526018202305,-3.70996277192831
1758447249742803200,8.30880322265625,2.2922676184661683,2.1480682602375745,-4.059360439227521
1758447249752776200,8.318776123046876,2.403273586014658,2.2240695499002934,-4.103067771267891
1758447249762748200,8.328748046875,2.6118992391854525,2.578905316600203,-3.7987899331554766
1758447249772720000,8.33872021484375,2.9021266323745247,3.5492619223624464,-3.1440172801569104
1758447249782692000,8.348692138671876,3.1721938655883073,4.852081134974957,-2.4393711737036705
1758447249792665300,8.358665283203125,3.200392955112457,5.549358466225862,-1.9023402262493967
1758447249802637000,8.368636962890625,3.026386633771658,5.4181800637423985,-1.4082856662124394
1758447249812609300,8.378609375,3.0271915204137563,4.947698394733667,-1.14050683619678
1758447249822582300,8.388582275390625,3.193545281174779,4.071279717341065,-1.2644111560240388
1758447249832554000,8.398553955078125,3.276601165524125,2.9301117868870494,-1.4014879688963293
1758447249842526200,8.408526123046874,3.2792508032500742,1.8440420587986706,-1.2271312266826628
1758447249852498200,8.418498291015625,3.186420543861389,1.194765665128827,-0.6531272238790988
1758447249862471200,8.42847119140625,2.922695373150706,0.925889687526226,0.2655895032778382
1758447249872443100,8.438443115234374,2.5497768372714518,0.7428425661176443,1.4148434172928332
1758447249882415400,8.448415283203126,2.006283708065748,0.9697995564013719,2.6847452796876428
1758447249892388000,8.45838818359375,1.1637035873889923,1.459434254169464,3.436631568482518
1758447249902360300,8.4683603515625,0.044651700218394395,1.8093179514199493,3.4255995945975184
1758447249912332000,8.47833203125,-1.293881288397312,2.0723259137719867,3.499069904477894
1758447249922304300,8.48830419921875,-2.6225837148070332,2.1531074234485623,3.481274135546386
1758447249932277200,8.49827734375,-3.431865961515903,1.972801709702611,3.4816681033000347
1758447249942249000,8.5082490234375,-4.760748420667648,1.437237035408616,3.9661633923530575
1758447249952221200,8.51822119140625,-6.356749200099706,0.3361515244960785,3.640918754057586
1758447249962193200,8.528193115234375,-6.380419998544454,-0.6821078191697597,2.9112288072407244
1758447249972166100,8.538166259765624,-4.402278681379556,-1.775008270061016,2.173517758792639
1758447249982138000,8.54813818359375,-2.6563714181184768,-2.543834587740898,0.8694839096933603
1758447249992110300,8.5581103515625,-0.3816005856372416,-2.0584663152456284,0.5284542577669025
1758447250002083000,8.5680830078125,2.2505308558464048,-0.9056032708227634,0.15599398704916237
1758447250012055000,8.578054931640626,2.7010361970141528,0.010169511836767196,-0.5620987532153725
1758447250022027300,8.58802734375,1.3500623175635933,0.6671487349689006,-1.3805992023855447
1758447250031999200,8.597999267578125,-0.4813432547628879,1.313965460526943,-2.1336782080963252
1758447250041972200,8.60797216796875,-1.9234300682902334,1.5420757124990223,-1.8376076418370006
1758447250051944200,8.617944091796875,-2.7098718298986553,1.0734335338771344,-0.775517924273014
1758447250061916200,8.627916259765625,-3.1129572482436894,0.2509025140166283,0.36954496779292817
1758447250071889200,8.63788916015625,-2.7206094970121977,-0.7004892790347337,1.093823995476961
1758447250081861400,8.647861328125,-2.948408198817074,-1.6811597735404968,1.472172447450459
1758447250091833000,8.6578330078125,-3.6939547631964085,-2.7619799105376,1.9109967031747102
1758447250101805300,8.667805419921875,-4.63590155929327,-3.6330794387340544,2.5258769062459465
1758447250111778300,8.6777783203125,-5.281905799424648,-4.315122375974059,2.8494857600331307
1758447250121750000,8.68775,-5.37852843683362,-5.0502059985280034,2.9343469402387736
1758447250131722200,8.69772216796875,-4.860457333654165,-5.6913779961973425,2.781921459326148
1758447250141694000,8.70769384765625,-4.1788858133181925,-6.241674375677109,2.470724927866459
1758447250151667200,8.717667236328126,-3.4652398233294486,-6.554835485208034,2.2617571832597254
1758447250161639200,8.72763916015625,-2.92846986489892,-6.529019491428136,2.257464454501867
1758447250171611100,8.737611083984374,-2.579530462761223,-6.369390655007958,2.1739321848124264
1758447250181584100,8.747584228515626,-1.8795313053309917,-6.211862590259313,1.8921768518924713
1758447250191556000,8.75755615234375,-0.9576116904795169,-5.882033254522085,1.5294015243649481
1758447250201528000,8.767528076171875,0.1700911937236786,-5.2495402378708125,1.4601768892303109
1758447250211500300,8.777500244140626,1.1542629743486643,-4.370369046899676,1.6360732621014118
1758447250221473300,8.787473388671875,2.026715378458798,-3.2484523448824882,1.7384516865581272
1758447250231445000,8.797445068359375,3.0912557040452957,-1.7480828537344932,1.3585133350446819
1758447250241417200,8.807417236328124,5.010818575513363,0.27955460800528525,0.3826978793546557
1758447250251389200,8.81738916015625,7.53563165192008,3.1855332396328446,-0.35714375138133764
1758447250261362200,8.827362060546875,8.089158683884143,6.3398214461743825,-0.946663887746632
1758447250271334100,8.837334228515624,6.16962620755434,7.094924358928203,-2.8235999158874154
1758447250281306400,8.847306396484376,4.7177287786304944,7.090550966149568,-4.454621739818156
1758447250291279000,8.857279052734375,3.820326642180979,7.048848836451769,-5.440013125365972
1758447250301251000,8.8672509765625,2.906666029369831,6.444573029503226,-5.194477691340446
1758447250311223300,8.877223388671876,2.7865046954631802,5.0160132215470075,-3.7705651246681806
1758447250321195000,8.887195068359375,2.7901018431723115,3.9676837337881325,-1.3941118871703744
1758447250331168300,8.897168212890625,1.5737259653903544,4.62355411889553,1.9922730106309054
1758447250341140200,8.90714013671875,-0.03065948828831315,6.097498544454575,5.047734639978408
1758447250351112200,8.9171123046875,-1.088625403920561,7.753597526496648,7.141794831174612
1758447250361085200,8.927085205078125,-1.9247138244904576,8.546861535340547,8.473926062989234
1758447250371057200,8.93705712890625,-1.9363842424094675,6.728129274365306,8.061334857413172
1758447250381029000,8.947029052734376,-1.7109832493960857,1.7391496056944131,5.3668672251343725
1758447250391001300,8.95700146484375,-1.9137246668338774,-2.0571043792426584,4.210239567480981
1758447250400974300,8.966974365234375,-1.6778068098507821,-3.274212224560976,4.114096530282497
1758447250410946000,8.976946044921876,-1.4925053336441516,-4.507922245112061,3.0671766170606016
1758447250420918300,8.986918212890625,-1.544851606953144,-5.641327724871039,1.672207528539002
1758447250430890000,8.996889892578125,-1.5828092894256114,-6.458731318715214,0.4309054454237222
1758447250440863200,9.00686328125,-1.5985200687766075,-6.8338470723778,-0.3956920932233333
1758447250450835200,9.016835205078126,-1.440208160173893,-6.979036464557051,-0.9550348257288336
1758447250460807200,9.02680712890625,-1.2499521302998065,-6.868638984295726,-1.1601160842910407
1758447250470780200,9.0367802734375,-1.2624959700524807,-6.09439239513278,-0.9410872566580771
1758447250480752000,9.046752197265626,-1.445277134001255,-4.833912441077828,-0.6082035017862916
1758447250490724000,9.05672412109375,-1.860453679895401,-3.378352397993207,-0.014469547118246554
1758447250500696000,9.066696044921875,-2.3891139816284177,-1.7933681026160715,0.8585343533948063
1758447250510669300,9.07666943359375,-2.93525850212574,-0.20935411357581615,1.8808800895914435
1758447250520641000,9.08664111328125,-3.437446976518631,1.1778659682542085,2.671405321121216
1758447250530613200,9.09661328125,-3.6143829215705394,2.3033570216268298,3.0867347194895145
1758447250540585200,9.106585205078124,-3.408960886746645,2.5703134293437,2.4693562698617577
1758447250550558200,9.11655810546875,-3.197041306596994,1.88166071857512,0.973479121696949
1758447250560530200,9.1265302734375,-2.8852304426312445,1.1343073970347641,-0.3695072661310434
1758447250570502400,9.13650244140625,-2.7679201142415404,0.8936264173030852,-1.0966817229956387
1758447250580475100,9.14647509765625,-2.0112135656833647,1.0389800601333379,-1.535783918878436
1758447250590447000,9.156447021484375,-1.3327169227480888,1.037448612782359,-2.1757535550206897
1758447250600419300,9.16641943359375,-1.1171171927809715,0.4324029905050993,-2.6793624176055193
1758447250610391000,9.17639111328125,-1.145809034258127,0.29129940633475776,-2.9968700319081543
1758447250620364300,9.1863642578125,-0.9260445858269929,0.560764582002163,-3.113638216245174
1758447250630335700,9.196335693359375,0.04314706780910492,0.9734195004642009,-2.8614018232762812
1758447250640307700,9.2063076171875,1.0919605396926402,1.3776941285938025,-2.32223064892292
1758447250650279700,9.21627978515625,2.201613387942314,1.355644793871045,-1.981285460409522
1758447250660253000,9.2262529296875,3.062206135171652,1.1933978839069603,-1.8454092554986476
1758447250670224600,9.236224609375,3.305208835849166,1.086966384667158,-1.8527344838201998
1758447250680196900,9.24619677734375,3.0809371391266582,0.6975994028121233,-1.78372875213325
1758447250690169900,9.256169921875,2.645607447519898,0.2742021410614252,-1.4055547799438237
1758447250700141600,9.2661416015625,2.1616407123856245,-0.00789104551076889,-1.0059943208545445
1758447250710113800,9.27611376953125,1.8155811034679412,-0.19126666822135446,-0.7076233686983585
1758447250720085500,9.28608544921875,1.4630353474013507,-0.06629764177203178,-0.6032090544998645
1758447250730058800,9.296058837890625,1.120180087482929,0.15898293973207472,-0.6836708307027817
1758447250740030700,9.30603076171875,0.8516337802261114,0.36585458884239197,-0.7867723087370395
1758447250750002700,9.316002685546875,0.7253608315713703,0.5805208373516798,-0.7990718183398247
1758447250759974700,9.325974609375,0.7930033120810985,0.6911135479241609,-0.7087836446493864
1758447250769947600,9.33594775390625,0.9152503662206232,0.7479261529922485,-0.564583848029375
1758447250779919600,9.345919677734376,1.1754555461116134,0.7665840917110442,-0.47996261405944823
1758447250789891800,9.355891845703125,1.5754865453220903,0.8619798176735639,-0.3850830209255218
1758447250799864800,9.36586474609375,2.2606945224642754,0.9590285715401172,-0.3287526464164257
1758447250809836500,9.37583642578125,2.9313445435523984,1.176895077395439,-0.40405309433341025
1758447250819808800,9.385808837890625,3.442263729150593,1.6057593723803758,-0.6338099444687366
1758447250829780700,9.39578076171875,3.819572901204228,1.9606027378648518,-1.0604793597579
1758447250839753700,9.405753662109374,3.9075723794355985,2.177739760401845,-1.9518366630852222
1758447250849725700,9.4157255859375,3.7418086935222146,2.392517652592063,-2.7383535357564686
1758447250859698000,9.425697998046875,3.5658120751470324,2.4857325273841617,-3.3073224670022725
1758447250869670700,9.435670654296874,3.397181309364736,2.679237329921126,-3.688587975466251
1758447250879642600,9.445642578125,3.1723136925756927,3.283312645861506,-3.8586926131933925
1758447250889614800,9.45561474609375,2.965853546875715,4.472312587070465,-3.811273274892568
1758447250899586600,9.465586669921874,2.8511621688127518,5.8775260062307115,-3.5449966661334034
1758447250909559800,9.475559814453124,2.6016315276712176,6.956531787282228,-3.235110632750392
1758447250919531800,9.48553173828125,2.175164356955886,7.274785251516104,-2.8468729471862315
1758447250929503700,9.495503662109375,1.7480559657275676,6.571593143263459,-2.5831781716138122
1758447250939475700,9.505475830078124,1.3881599930286406,5.189820220923424,-2.0831191104650495
1758447250949448700,9.51544873046875,1.1079244170218705,4.118690872335434,-1.390430860570073
1758447250959420700,9.525420654296875,0.9080664460659027,3.3388334575533865,-0.15068565150797367
1758447250969393000,9.535392822265624,1.077822124224901,2.5303701260119675,1.1939146012574433
1758447250979366000,9.545365966796876,1.5320453168720005,1.4297417112171649,2.0312644200652836
1758447250989337600,9.555337646484375,2.034738233655691,0.34570261217355724,2.503034375318885
1758447250999309800,9.565309814453125,2.266385427582264,-0.23790859240889548,3.0567367638498544
1758447251009281500,9.575281494140626,1.7441490214169024,-0.5663689778804779,4.398303348007798
1758447251019254800,9.5852548828125,-0.03350121452026069,0.002080313405394554,5.796619408869743
1758447251029226800,9.595226806640625,-1.7610042946279048,0.12226444366574286,5.9866240943312645
1758447251039198700,9.60519873046875,-2.971411181002855,-0.28042203848958014,5.71790301502943
1758447251049170700,9.615170654296875,-3.4201100572705267,-0.9439443996548652,5.221078698018193
1758447251059143700,9.625143798828125,-2.6948306203722954,-1.6163228519707917,4.798777414810657
1758447251069115600,9.63511572265625,-2.4657272657096385,-2.1870541167140005,4.652709486231208
1758447251079087600,9.645087646484376,-2.0345733984827996,-2.295853514128923,4.447377467778325
1758447251089060900,9.655060791015625,-0.5510284931465983,-2.062870103162527,4.07489703105539
1758447251099032600,9.665032470703125,0.0349871422290802,-1.905558311513066,3.2147625489875673
1758447251109004800,9.6750048828125,0.2125551015742123,-1.7562381031394003,1.2311267260596155
1758447251118976800,9.684976806640625,0.35040304494947194,-1.12025315271914,-0.9554100887820124
1758447251128949800,9.69494970703125,-0.7194976386263966,0.31287001762986183,-2.62843682474941
1758447251138921700,9.704921630859374,-2.2269465666413306,1.9619044681131839,-3.3998768320590256
1758447251148894000,9.71489404296875,-3.2122520274713633,3.1004858892053364,-2.8237448773160576
1758447251158865700,9.72486572265625,-2.974367400459945,3.183607824528217,-1.6496066974133252
1758447251168838700,9.734838623046874,-2.6393738138273357,2.0308312893450258,-0.5632414935097098
1758447251178811000,9.744810791015626,-2.2584356376215813,0.4175350917190313,0.5344914921045303
1758447251188782600,9.754782470703125,-1.83819654764086,-1.0201800825953482,1.1255340157315135
1758447251198755800,9.764755859375,-2.1282246188655494,-1.977369163748622,1.6817109776824712
1758447251208727800,9.774727783203126,-3.5733854330107566,-2.7084517339676615,2.1387670556679366
1758447251218699800,9.78469970703125,-4.835458793736994,-3.666810443422198,1.9828283059373497
1758447251228671700,9.794671630859375,-5.363061987632513,-4.650547339761257,1.8849588833376765
1758447251238644500,9.80464453125,-5.468524934101104,-5.435427551141381,1.9744906857028603
1758447251248616700,9.81461669921875,-5.136970089745521,-6.093933545449376,1.7859850066274403
1758447251258588700,9.824588623046875,-4.529272491654753,-6.567624824154376,1.4909972671687601
1758447251268560600,9.834560546875,-3.92892379502207,-6.746606595820188,1.281176997385919
1758447251278533600,9.84453369140625,-3.5259780774086713,-6.688811409455537,1.002229707624018
1758447251288505900,9.854505859375,-3.1854724493563173,-6.609613369578122,0.7691860909029841
1758447251298477600,9.8644775390625,-2.6878081743896005,-6.514256806582212,0.4890931382372975
1758447251308450800,9.874450927734374,-2.0237559441313144,-6.239138719719648,0.26680881593972444
1758447251318422800,9.8844228515625,-0.8178603977009653,-5.732222632282972,0.30883067911118267
1758447251328394800,9.894394775390625,0.6113692723408342,-4.855111296451091,0.6458057949498296
1758447251338366700,9.90436669921875,1.9247350134089587,-3.7507811045289037,1.0041378793328999
1758447251348339700,9.914339599609375,3.095270200383663,-2.393105097091198,1.0933622231841087
1758447251358311700,9.924311767578125,4.40909654470086,-0.20982816082835196,0.9253484202563762
1758447251368283600,9.93428369140625,7.431791338217258,3.2332091830432415,0.43478842433691023
1758447251378255600,9.944255615234376,11.905832941037415,8.383956453728675,0.3739762282386422
1758447251388228600,9.954228515625,12.685894938480853,12.330191156774758,-0.20854805788993835
1758447251398200800,9.964200927734375,9.788106627571581,11.838767237502335,-2.237308970701694
1758447251408172500,9.974172607421876,6.885918035876751,9.281866247439384,-3.809714647273719
1758447251418145500,9.9841455078125,4.174627571351826,6.205950735867023,-4.905457335853576
1758447251428117800,9.99411767578125,1.95647995884642,3.626706981092691,-4.238393648819625
1758447251438089700,10.00408984375,0.3650535015925765,2.7868331967651843,-1.6706138296067714
1758447251448061700,10.014061767578125,-1.423463946121931,3.3772131648302075,0.9777379481852054
1758447251458034700,10.02403466796875,-2.7931460331737994,4.639897350931167,3.042445788168907
1758447251468006700,10.034006591796874,-3.550824349373579,5.73647970520556,5.136884749549627
1758447251477978600,10.043978515625,-4.850425768983364,5.949121169888973,7.178840659499168
1758447251487950800,10.053950927734375,-5.293286440616845,5.004800922659039,8.173304117035865
1758447251497923600,10.063923583984375,-4.360471337741613,2.702182736700773,8.565948513126372
1758447251507895800,10.073895751953126,-2.6978490914106366,-0.9870447057127952,6.7275500131726265
1758447251517867800,10.08386767578125,-1.4864510020412505,-3.3893197822093963,4.7071197063326835
1758447251527840500,10.093840576171875,-0.6917220352113247,-5.344648963585495,3.156925277046859
1758447251537812700,10.103812744140624,-0.9714683663964271,-6.555790593975782,1.8725398390084504
1758447251547784700,10.11378466796875,-1.7638439019680021,-7.05395580420196,0.85761373141855
1758447251557756700,10.123756591796875,-1.873109747850895,-7.420096808770299,-0.198384391272068
1758447251567729700,10.133729736328124,-1.4398843350470065,-7.694478398051857,-0.8569804019510745
1758447251577702000,10.143701904296876,-0.9527483952920883,-7.459788183167577,-1.1686413360521197
1758447251587673600,10.153673583984375,-0.8287678684234618,-6.878211699283122,-1.288258480079472
1758447251597645800,10.163645751953124,-1.0102537318646907,-5.770512907710671,-1.0532990928649901
1758447251607618800,10.173618896484374,-1.2861948255479334,-4.2738656519562,-0.2720490546807647
1758447251617590800,10.1835908203125,-1.767329990518093,-2.587866037169099,0.806495830860734
1758447251627563000,10.19356298828125,-2.250064407378435,-0.6500052924662828,2.364273262621462
1758447251637535700,10.20353564453125,-2.3653625191628933,1.1337661297649144,3.6656083741560574
1758447251647508000,10.213508056640626,-2.1389035415291784,2.4147955353736874,4.541338192501664
1758447251657480000,10.22347998046875,-1.909212157845497,2.9976953768163916,4.76754261085242
1758447251667452000,10.233451904296874,-1.7586079010106621,2.385577039673924,3.6678210817694663
1758447251677425000,10.2434248046875,-1.660565898323059,0.9994500137776136,1.8594991556495426
1758447251687397000,10.253397216796875,-1.6750912672817706,0.051985038781166074,0.5119394685566425
1758447251697368800,10.263368896484375,-1.2246996156215666,-0.3922995281755924,-0.735759914380312
1758447251707341000,10.273341064453126,-1.0572750838238745,-0.7275438746988773,-1.9621008674681186
1758447251717314000,10.28331396484375,-1.202266834539175,-0.8353513384670018,-2.612666716426611
1758447251727285800,10.29328564453125,-1.386682321691513,-0.5547802468955516,-2.6617075184494254
1758447251737258000,10.303258056640624,-1.233444063091278,0.16550737306475638,-2.3158687126755715
1758447251747231000,10.31323095703125,-0.9760884274125099,1.1005185246795415,-1.9530179818242788
1758447251757203000,10.323202880859375,-0.7341753486026078,2.2945944539785383,-2.33446527659595
1758447251767175000,10.3331748046875,-0.4901665396224707,3.0162989549994466,-3.137948481637239
1758447251777147000,10.34314697265625,0.11780403019078076,2.7889754694908855,-3.6223587227553127
1758447251787119900,10.353119873046875,1.0206307489722966,2.2908085056990384,-3.672416592866182
1758447251797091800,10.363091796875,1.7331765226341782,1.5881991657704113,-3.770327516520023
1758447251807063800,10.373063720703126,2.278137386304885,0.9423200133234262,-3.8389106388807295
1758447251817036000,10.3830361328125,2.6911346884638068,0.6841308494299649,-3.390707437175512
1758447251827009000,10.393009033203125,2.96401639457643,0.6365764865726232,-2.589521987682581
1758447251836980700,10.402980712890624,3.1217279991984364,0.8303799797952175,-1.626484765022993
1758447251846953000,10.412952880859375,3.298826441335678,1.0973819802194833,-0.8161755133539438
1758447251856925000,10.422925048828125,3.254922417679429,1.414506148162484,-0.28913550629913803
1758447251866898000,10.43289794921875,3.073359981870651,1.4504185885429381,-0.23083529302179812
1758447251876870000,10.442869873046876,2.9950252808243034,1.260982642880082,-0.48027416422665115
1758447251886842000,10.452842041015625,3.054793813088536,1.0094850855797528,-0.7453010651856661
1758447251896814800,10.46281494140625,3.230587017846107,0.8854431108474731,-0.8355641044348477
1758447251906786800,10.472786865234376,3.4277623255893586,1.0484048910826445,-0.7540490197867155
1758447251916759000,10.482759033203125,3.5978263390451666,1.4368804770559072,-0.6665706428200006
1758447251926730800,10.492730712890625,3.6612463795542713,1.9703981556922197,-0.7458750656813382
1758447251936704000,10.5027041015625,3.575121170762181,2.470495210763812,-1.1699877822250127
1758447251946676000,10.512676025390626,3.3018478349834677,2.760460738146305,-1.9693869328230618
1758447251956648000,10.52264794921875,3.0259985112369057,3.0095816294431685,-2.5838679074436426
1758447251966620000,10.532619873046874,2.9752696099966762,3.13507438750565,-2.99299932795465
1758447251976593000,10.542593017578126,3.006135872903466,3.1844577193558212,-3.3938661934673786
1758447251986564900,10.55256494140625,2.8821286772236228,3.4949247674971815,-3.6585575788617133
1758447251996537000,10.562537109375,2.6758184613883493,4.24039008333385,-3.6817104909121987
1758447252006510000,10.572510009765624,2.457093292877078,5.25364767318964,-3.35936011275351
1758447252016481800,10.582481689453125,2.286323030848056,5.887384552422166,-2.911673628398776
1758447252026454000,10.5924541015625,2.2694321018017827,5.617646405032277,-2.3833617017120123
1758447252036425700,10.60242578125,2.3197604594171044,4.709627305239438,-1.9222966803461312
1758447252046399000,10.61239892578125,2.403306757631898,3.6233150005668397,-1.7836480881124734
1758447252056371000,10.622370849609375,2.2886850838042796,2.620518598970771,-1.515063786932826
1758447252066343000,10.632343017578124,2.1285113268524407,2.0665350554108617,-0.47950376437604425
1758447252076315000,10.64231494140625,2.1050614776819945,1.8957623091638087,0.8216881392955779
1758447252086288000,10.652287841796875,2.3229554560661314,1.9904677147746086,2.2648989884167907
1758447252096259800,10.662259765625,2.416493571463227,2.0802286497205493,3.707592535665631
1758447252106231800,10.672231689453126,2.1027789197027684,1.9557576359212396,4.566992273718118
1758447252116205000,10.682205078125,1.2054209146559238,1.629368211504817,4.801157880206405
1758447252126176800,10.6921767578125,-0.23864158285856246,1.4632190334051847,5.000888133129477
1758447252136149000,10.70214892578125,-1.7573264828979969,1.4158201533704995,5.390301876735687
1758447252146121000,10.712120849609375,-3.186737646986544,1.0127268439799546,5.484001904696226
1758447252156094000,10.722093994140625,-4.457873727351426,0.23197627975046634,5.1406777120918035
1758447252166066000,10.73206591796875,-4.948505034941435,-0.5608019914031028,5.091379135915637
1758447252176038100,10.7420380859375,-4.323070120108127,-1.5998533632069825,5.1520367259740825
1758447252186009900,10.752009765625,-2.6871383123040196,-2.633539408585429,4.932262340670824
1758447252195982800,10.76198291015625,-0.33127164350003,-3.2554058172822,3.735881057038903
1758447252205955000,10.771955078125,1.3412813374757766,-2.7555437400102614,2.521659288550913
1758447252215926800,10.7819267578125,1.3403870189845561,-2.010388805297017,1.021935401830077
1758447252225899000,10.79189892578125,0.4914807640261948,-1.3070043893426655,-0.36225364174097774
1758447252235872000,10.8018720703125,-0.028473522551357745,-0.8281757477492093,-1.3129396246105431
1758447252245844000,10.811843994140625,-1.127278521311283,0.024104513686895368,-2.4849817090168593
1758447252255816000,10.82181591796875,-2.2434037804454565,1.424776782286167,-2.663435365155339
1758447252265789000,10.831788818359374,-2.4036299982368945,2.346985735473037,-1.4253545821741223
1758447252275761000,10.841760986328126,-2.689498611694574,1.966701054739952,-0.06550678365528582
1758447252285732900,10.85173291015625,-2.8642136658266186,0.4807037878155708,0.5732736427024007
1758447252295704800,10.861704833984374,-3.025649843929708,-1.083031383305788,0.7472609670817851
1758447252305677800,10.871677734375,-3.6091327459573743,-2.3730291082680224,1.2202607563912868
1758447252315650000,10.881650146484375,-4.4598836058691145,-3.406478422281146,1.7779951769173143
1758447252325621800,10.891621826171875,-5.298796143949032,-4.489362506070733,1.841016573497653
1758447252335594000,10.901593994140624,-6.09058774215281,-5.77075606881678,1.6634312246263026
1758447252345567000,10.91156689453125,-6.456219628155231,-6.9634443431496615,1.4268836914375425
1758447252355539000,10.9215390625,-6.280864814814925,-7.691967876535654,1.4636968800500034
1758447252365511000,10.931510986328124,-5.493980862396955,-7.928225779128074,1.786263531307876
1758447252375484000,10.94148388671875,-4.6296115192383525,-7.814355654320121,1.863564213131368
1758447252385455900,10.951455810546875,-4.081774807870388,-7.505662045592069,1.7960037118166685
1758447252395427800,10.961427734375,-3.5485222099110483,-7.178170797413587,1.5839686885938047
1758447252405400000,10.971400146484376,-2.707490195459127,-6.930106721693277,1.2024462827593088
1758447252415372800,10.981372802734375,-1.5602020285591482,-6.417405036592483,1.1914227844417093
1758447252425345000,10.991344970703125,-0.4007549295708537,-5.658560014700889,1.1119193318769336
1758447252435317000,11.00131689453125,0.9441747012794017,-4.556909271121024,0.9652741879314184
1758447252445289000,11.0112890625,2.0431284608602525,-2.901138205859065,1.1443059362187982
1758447252455262000,11.021261962890625,3.448599361912906,-0.32485271636843677,1.7514768800869582
1758447252465234000,11.03123388671875,10.105290416747332,4.939144501399993,2.234754610043764
1758447252475206000,11.041205810546876,18.245888195967673,13.79919871045351,1.8308152052178979
1758447252485178000,11.05117822265625,13.64341544354558,16.224513301753998,0.09535071777701377
1758447252495151000,11.061151123046875,8.47302239214778,12.93760526174903,-2.6747964248642324
1758447252505122800,11.071122802734376,5.801975967466831,9.472786878702044,-4.908627198061347
1758447252515095000,11.081094970703125,3.245309955203533,5.272574491977691,-6.579726765358448
1758447252525068000,11.091068115234375,1.4177062593780456,1.8958441422283647,-6.734748984766006
1758447252535040000,11.1010400390625,-0.34086613192781806,0.6655073975026607,-5.019698047539592
1758447252545012000,11.111011962890625,-2.069911399976164,1.3529074778616428,-2.023833393281698
1758447252554984000,11.12098388671875,-3.1805951987087724,3.440361402660608,1.6264163759618997
1758447252564957000,11.13095703125,-3.7009295706450938,5.269997334966063,4.725252452133596
1758447252574929000,11.140928955078126,-4.897651630538702,6.0156672334641215,6.96387513578236
1758447252584900900,11.15090087890625,-5.328884992742538,6.069835461503267,8.927482316160201
1758447252594872800,11.160872802734374,-3.6078912214636802,4.793673369669914,10.169753828829526
1758447252604846000,11.17084619140625,-1.2848153538882732,0.8311047869384288,8.47947317572236
1758447252614817800,11.18081787109375,0.1416039349079132,-2.8195985712915657,6.194603996944427
1758447252624790000,11.1907900390625,0.7869372900404036,-4.8464159488201135,4.6008881135791535
1758447252634762500,11.200762451171874,-0.4421826262414455,-5.85828179205656,2.76066619759053
1758447252644734500,11.210734375,-1.5450515134394167,-6.437200454908609,1.0214929187595843
1758447252654706400,11.22070654296875,-1.6403180600643157,-6.901247706955671,-0.4433113380104303
1758447252664678700,11.2306787109375,-1.4961808072865008,-7.019550845775008,-1.4049039148196578
1758447252674651400,11.2406513671875,-1.6480419323146343,-6.725711691829562,-1.9631822329640387
1758447252684623400,11.250623291015625,-1.5809516788601874,-6.299681158965826,-2.157987596705556
1758447252694595600,11.260595703125,-1.224033260667324,-5.757490929052233,-2.055506880918145
1758447252704567600,11.270567626953126,-1.0825485682249067,-4.634718486988544,-1.4438266429319977
1758447252714540500,11.28054052734375,-1.1412240445554256,-2.586169754645228,0.03695698099732399
1758447252724512500,11.290512451171875,-1.2716565971076488,-0.47053836763203144,1.3434472833380102
1758447252734484500,11.300484375,-1.339647014272213,1.4233774368822574,2.4450047956764696
1758447252744457500,11.31045751953125,-1.3301146312952041,3.0392227344691753,3.493752508847415
1758447252754429700,11.3204296875,-1.5613796940363942,3.7776322865754364,3.873138487175107
1758447252764401400,11.3304013671875,-1.9582231492519377,2.925008326268196,2.9989021222576495
1758447252774373600,11.34037353515625,-2.6309283493041993,1.3208762628287076,1.6416753198921679
1758447252784346600,11.3503466796875,-3.1141128480196,-0.073455112311244,0.5927040270984173
1758447252794318300,11.360318359375,-3.421455626660585,-1.2526841856122015,-0.27790391818881033
1758447252804290600,11.37029052734375,-3.1217279991984364,-2.0131383962661027,-1.410500419652462
1758447252814262300,11.38026220703125,-2.8838451257526874,-2.1188941882014274,-2.203351171520352
1758447252824235500,11.390235595703125,-2.636978150862455,-1.6468734730571508,-2.7190345027804375
1758447252834207500,11.40020751953125,-2.3133435781121254,-0.8913187248826027,-2.756969973421097
1758447252844179500,11.410179443359375,-1.6505886941879986,0.07327507956922054,-2.379700841116905
1758447252854152400,11.42015234375,-0.7251717387400567,1.2934919968187808,-1.924650549995899
1758447252864124400,11.43012451171875,0.0262082810331136,2.3636849413394927,-1.6591870111852884
1758447252874096400,11.440096435546875,0.4791209756035357,2.9317618921816346,-1.7682926980704068
1758447252884068600,11.450068603515625,1.0693980678159742,2.8669197099149226,-2.328160038971901
1758447252894041600,11.46004150390625,1.7289545210249722,2.33873637804389,-2.9665017816513775
1758447252904013300,11.470013427734376,2.3456524410426614,1.713227813452482,-3.3945161818087097
1758447252913985500,11.479985595703125,2.953165914738178,1.1842477782458065,-3.5182302397608756
1758447252923957500,11.48995751953125,3.5381782182902097,0.9167349056899547,-3.2670886562913655
1758447252933930500,11.499930419921874,3.7521231667876243,0.9476625433951615,-2.6488895379304886
1758447252943902500,11.50990234375,3.6977258061677216,1.1905986085772513,-1.781394171705842
1758447252953874400,11.51987451171875,3.5996430330783125,1.4812784217089414,-0.9765145438700914
1758447252963847400,11.529847412109374,3.5008594182431696,1.6451725143581628,-0.40311669026613234
1758447252973819400,11.5398193359375,3.4835651690930125,1.630602721735835,-0.05735913303494453
1758447252983791400,11.549791259765625,3.663787296208739,1.4605407541066406,0.14246727373898027
1758447252993763300,11.559763427734374,3.83858359888345,1.1721575274795293,0.3399947559207678
1758447253003736600,11.569736572265626,3.8966327600091692,1.1951339139193295,0.5810942533254623
1758447253013708300,11.579708251953125,3.766682145754993,1.671893932545185,0.5849760631948709
1758447253023680500,11.589680419921875,3.511255724573135,2.1803923207372424,-0.013645078992843626
1758447253033653500,11.599653564453124,3.1746254766494033,2.430634325018525,-1.028631100076437
1758447253043625500,11.60962548828125,2.92100902749896,2.5241414607554673,-2.046842512947321
1758447253053597400,11.619597412109375,2.8124463614493607,2.684466462746262,-2.9096085125625133
1758447253063569700,11.629569580078124,2.6875121140524745,3.1872809600830077,-3.5345196957826612
1758447253073542400,11.63954248046875,2.660655963569879,4.113328468519449,-3.926134748825431
1758447253083514400,11.649514404296875,2.554678053316474,5.297157144570351,-4.028326126277446
1758447253093486600,11.659486572265624,2.3717551428094503,6.19918664855957,-4.029695076543092
1758447253103459300,11.669459228515626,2.0735231607325373,6.196005095914006,-3.983531875783205
1758447253113431600,11.679431640625,1.8519174683488904,5.293257214522361,-3.856055834949016
1758447253123403500,11.689403564453125,1.6660808623522518,4.11830625693202,-3.5645799030035734
1758447253133376300,11.699376220703124,1.7163849623091518,3.2959570233792066,-3.0228765798240897
1758447253143348500,11.709348388671875,1.8136479434482753,2.735206469902396,-2.0480466280400753
1758447253153320400,11.719320556640625,1.7316088349260388,2.377525835165381,-0.5556050072818994
1758447253163292400,11.72929248046875,2.115093188483268,2.0583377204298974,0.965136825287342
1758447253173265400,11.739265380859376,2.9173464133381843,1.8264777605354785,2.447449266219139
1758447253183237600,11.749237548828125,3.417525885996222,1.4813807130396366,3.923026845937967
1758447253193209300,11.759209228515624,2.9176258148014544,1.2384282812446354,4.874469200132787
1758447253203182300,11.769182373046876,1.4321592937529086,1.3617033632576465,4.986212542045116
1758447253213154600,11.779154541015625,-0.44781040299534797,1.5448662200003862,5.042362883812189
1758447253223126500,11.78912646484375,-2.2898493052780626,1.5797183376729487,5.119920170745253
1758447253233098500,11.799098388671876,-3.8393116208970546,1.174795474767685,5.048536604011058
1758447253243071500,11.809071533203126,-4.784153846174478,0.5581891785562038,5.010079739844799
1758447253253043500,11.81904345703125,-5.138826531267166,-0.3134147920310497,5.041027835816145
1758447253263015400,11.829015380859374,-4.871832421888411,-1.5705378368735312,4.760002278475463
1758447253272988700,11.83898876953125,-4.076946949322521,-2.508020931559801,4.567290379881858
1758447253282960400,11.84896044921875,-2.0083732276909054,-3.044520256355405,3.7499239031776783
1758447253292932600,11.8589326171875,1.1641861102089286,-3.0693828949332236,2.10487355389446
1758447253302905600,11.868905517578124,2.415272359105199,-2.7772283330738543,0.6161407245263457
1758447253312877300,11.878877197265625,2.0820412521004674,-1.6449971577912568,-0.5920753738060593
1758447253322849500,11.888849609375,0.37074294540584085,-0.25433891820609567,-2.2300664522275326
1758447253332821200,11.8988212890625,-1.4730913158610461,0.8315455164432525,-2.521715402652323
1758447253342794500,11.90879443359375,-3.136158383350074,2.385367196315527,-2.2379314865142104
1758447253352766500,11.918766357421875,-3.284334390124678,2.8378473446875807,-1.3493871947810052
1758447253362738400,11.928738525390624,-2.8154347296103834,1.3819669836074113,-0.33232378290146586
1758447253372711400,11.93871142578125,-2.5339851016387342,0.09248772956132888,0.3817176361456513
1758447253382683400,11.948683349609375,-3.519506835567951,-0.7849754884481429,0.8150348188862204
1758447253392655400,11.9586552734375,-5.387270546215772,-1.837887043300271,0.9725900639027356
1758447253402627600,11.968627685546876,-6.393591030284762,-2.9864170269548893,1.255644788983464
1758447253412600600,11.9786005859375,-6.602620149689913,-4.098452970948815,1.6651237077578902
1758447253422572300,11.988572265625,-6.376925726687908,-5.114478856474161,1.7512772658616302
1758447253432544500,11.99854443359375,-5.830388407480716,-5.990941957530379,1.6669433244004845
1758447253442517500,12.008517578125,-5.0613230203479525,-6.737429602152109,1.6518761036500333
1758447253452489500,12.018489501953125,-4.2376919302910565,-7.31634300430715,1.4324500933930278
1758447253462461400,12.02846142578125,-3.53899771797955,-7.426518950772285,1.214665420602262
1758447253472434400,12.038434326171876,-2.9874586449623104,-7.106834576952457,1.0942433899328112
1758447253482406400,12.048406494140625,-2.227856082701683,-6.7251967280447476,0.7765788315027952
1758447253492378400,12.05837841796875,-1.243632279628515,-6.218648889398574,0.46631548923999067
1758447253502350600,12.0683505859375,-0.3035083150446415,-5.371103255268931,0.3565905014127493
1758447253512323300,12.0783232421875,0.5215311805054546,-4.220157442644238,0.6087269411385059
1758447253522295600,12.088295654296875,1.6439046863794327,-2.9727865610092876,0.7157698502749205
1758447253532267500,12.098267578125,3.487103864613175,-1.3483295024216175,0.2769748206451535
1758447253542240300,12.108240234375,7.87146285842061,1.3567524628520011,-0.4815495909899473
1758447253552212500,12.11821240234375,11.03747774311304,4.298281131288409,-1.545237683661282
1758447253562184400,12.128184326171874,9.218186094689369,7.198626140943169,-1.0160659252747892
1758447253572156400,12.138156494140626,8.158272552120685,10.905946289408206,0.20235475620776414
1758447253582129400,12.14812939453125,7.247126844739913,11.45536997770667,-0.8196338371142744
1758447253592101600,12.1581015625,5.589326903998852,8.664211903479694,-2.7240830183416604
1758447253602073300,12.1680732421875,4.099906676888466,5.7193666578412055,-3.047415685535967
1758447253612046600,12.178046630859376,2.0754373237907884,4.577633494719863,-0.4233163054689765
1758447253622018600,12.1880185546875,-0.9139899908959865,5.078599149319529,3.2135897058159113
1758447253631990500,12.197990478515624,-3.099931177932024,6.0146893283426754,5.6032455392360685
1758447253641963300,12.20796337890625,-4.025165031898021,5.801132502380013,6.495870086020231
1758447253651935200,12.217935302734375,-3.748727094608545,4.524891500091552,6.539917317539453
1758447253661907500,12.227907470703125,-3.424601523470878,2.1566940497636793,6.319772345358133
1758447253671879200,12.237879150390626,-3.2966414985120296,-0.6680033059716224,6.558285333400964
1758447253681852400,12.247852294921875,-2.4903905823230743,-2.496205990603566,5.980695873326063
1758447253691824400,12.257824462890625,-1.2032640288829803,-4.196743833830952,4.016549471504986
1758447253701796400,12.26779638671875,-0.4792015665590763,-5.5009653144568205,2.8748300446480513
1758447253711769300,12.277769287109376,-0.7165513560414314,-6.057289868184924,1.9114023613661526
1758447253721741300,12.2877412109375,-1.344935768330097,-6.13629969201386,0.8831921170502901
1758447253731713300,12.29771337890625,-1.6668834109067916,-6.136427702307701,-0.04169102378189563
1758447253741685500,12.307685546875,-1.8043489308357237,-5.877038514974713,-0.6051175184696912
1758447253751658500,12.317658447265625,-1.8897429027438162,-5.5285553321719165,-0.9551941079437732
1758447253761630200,12.327630126953125,-1.7448738285601137,-5.12007565356791,-1.2059385087892411
1758447253771602400,12.3376025390625,-1.6075450867533683,-4.4496676245421165,-1.1418401306271553
1758447253781575400,12.347575439453125,-1.9396704244732856,-3.195607474401593,-0.38310646015554667
1758447253791547400,12.35754736328125,-2.280542547750473,-1.356689334487915,1.0017392937585712
1758447253801519400,12.367519287109374,-2.414755787885189,0.42494039953947066,2.132544527891278
1758447253811491300,12.3774912109375,-2.7655940093815325,2.0392676937788723,3.09783157530427
1758447253821464300,12.38746435546875,-2.968403231358528,3.01310395835042,3.5392268505603073
1758447253831436300,12.397436279296874,-3.5315912411153314,2.794750545760989,3.0040298405349253
1758447253841408300,12.407408203125,-3.713445353347063,1.5562953765094278,1.6527081705600022
1758447253851381200,12.41738134765625,-3.5262826133131977,0.16894962247312068,0.3334048561364412
1758447253861353500,12.427353515625,-3.5569828720033168,-0.7086731700122356,-0.5007628255039454
1758447253871325200,12.4373251953125,-2.903872014737129,-1.2181979786425827,-1.1926824291139841
1758447253881298200,12.447298095703125,-2.2292320472300053,-1.2235896085530518,-1.5481927340745925
1758447253891270400,12.4572705078125,-1.8056793026566504,-0.8548094876527785,-1.8303262526571749
1758447253901242400,12.467242431640624,-1.3076046933233738,-0.053607087025046345,-1.8782132084697485
1758447253911214300,12.47721435546875,-0.6303788009762764,1.2142746677190064,-2.1178210060119627
1758447253921187300,12.487187255859375,-0.24432605823576448,2.3433412414908408,-2.774149656280875
1758447253931159300,12.4971591796875,-0.06883497822992503,3.0911645186305043,-3.5601574103862044
