time,seconds_elapsed,z,y,x
1758447241454585000,0.020585205078125,-0.8262786865234375,0.2974700927734375,-0.5180816650390625
1758447241464558000,0.03055810546875,-0.8251953125,0.299957275390625,-0.51654052734375
1758447241474530000,0.040530029296875,-0.8171539306640625,0.305694580078125,-0.5172882080078125
1758447241484502000,0.050501953125,-0.812469482421875,0.3110809326171875,-0.508056640625
1758447241494474000,0.060473876953125,-0.8195037841796875,0.2971038818359375,-0.5172271728515625
1758447241504447000,0.070447021484375,-0.8552093505859375,0.2934417724609375,-0.53533935546875
1758447241514419200,0.080419189453125,-0.8785552978515625,0.2915802001953125,-0.5457611083984375
1758447241524391000,0.090390869140625,-0.8642578125,0.2728271484375,-0.551422119140625
1758447241534364000,0.100364013671875,-0.809844970703125,0.2538604736328125,-0.5452728271484375
1758447241544336100,0.110336181640625,-0.7474517822265625,0.24298095703125,-0.521087646484375
1758447241554307800,0.120307861328125,-0.71697998046875,0.2294158935546875,-0.5108489990234375
1758447241564281000,0.130281005859375,-0.7174224853515625,0.2157440185546875,-0.515838623046875
1758447241574253000,0.140253173828125,-0.7253875732421875,0.203277587890625,-0.5306549072265625
1758447241584225000,0.15022509765625,-0.7373046875,0.198150634765625,-0.541015625
1758447241594198000,0.160197998046875,-0.7509002685546875,0.213043212890625,-0.5338592529296875
1758447241604170000,0.170169921875,-0.7681121826171875,0.2256011962890625,-0.5265350341796875
1758447241614142200,0.18014208984375,-0.776611328125,0.2316131591796875,-0.5110626220703125
1758447241624115200,0.190115234375,-0.781524658203125,0.22882080078125,-0.50360107421875
1758447241634087400,0.20008740234375,-0.7761383056640625,0.215789794921875,-0.5120849609375
1758447241644059100,0.21005908203125,-0.7713623046875,0.2009735107421875,-0.5299072265625
1758447241654031400,0.22003125,-0.778900146484375,0.1891632080078125,-0.5480194091796875
1758447241664004400,0.23000439453125,-0.7874908447265625,0.18701171875,-0.555572509765625
1758447241673976000,0.23997607421875,-0.78765869140625,0.1897125244140625,-0.5510406494140625
1758447241683948300,0.2499482421875,-0.7832794189453125,0.2021026611328125,-0.5347442626953125
1758447241693921300,0.25992138671875,-0.7821044921875,0.204071044921875,-0.5140838623046875
1758447241703893200,0.269893310546875,-0.778961181640625,0.2044219970703125,-0.4934539794921875
1758447241713865200,0.279865234375,-0.7776336669921875,0.2064361572265625,-0.483734130859375
1758447241723838200,0.289838134765625,-0.78485107421875,0.2054443359375,-0.484283447265625
1758447241733810200,0.29981005859375,-0.8123626708984375,0.2088165283203125,-0.4972076416015625
1758447241743782400,0.309782470703125,-0.834228515625,0.2192535400390625,-0.5050048828125
1758447241753754000,0.319754150390625,-0.8416290283203125,0.2227630615234375,-0.5087738037109375
1758447241763727000,0.32972705078125,-0.843719482421875,0.2233428955078125,-0.50482177734375
1758447241773699300,0.33969921875,-0.83477783203125,0.2266387939453125,-0.49383544921875
1758447241783671000,0.349671142578125,-0.8284759521484375,0.2279510498046875,-0.4883270263671875
1758447241793644300,0.359644287109375,-0.830047607421875,0.2335662841796875,-0.4775848388671875
1758447241803616300,0.3696162109375,-0.828826904296875,0.23779296875,-0.4693603515625
1758447241813588200,0.379588134765625,-0.8190765380859375,0.232574462890625,-0.46319580078125
1758447241823561200,0.389561279296875,-0.8155517578125,0.2211456298828125,-0.461700439453125
1758447241833533200,0.399533203125,-0.817626953125,0.2150726318359375,-0.4648590087890625
1758447241843505200,0.409505126953125,-0.8249359130859375,0.20843505859375,-0.4770355224609375
1758447241853478100,0.41947802734375,-0.8346710205078125,0.203826904296875,-0.4898681640625
1758447241863450400,0.429450439453125,-0.843475341796875,0.2043609619140625,-0.49688720703125
1758447241873422000,0.439422119140625,-0.8462371826171875,0.208160400390625,-0.497955322265625
1758447241883394300,0.449394287109375,-0.849151611328125,0.21453857421875,-0.4948272705078125
1758447241893367300,0.4593671875,-0.8573150634765625,0.218994140625,-0.495849609375
1758447241903339300,0.46933935546875,-0.8687591552734375,0.2205810546875,-0.5001373291015625
1758447241913311200,0.479311279296875,-0.868865966796875,0.222259521484375,-0.498382568359375
1758447241923284200,0.4892841796875,-0.8578643798828125,0.2261810302734375,-0.489227294921875
1758447241933256200,0.499256103515625,-0.8474273681640625,0.22564697265625,-0.487060546875
1758447241943228200,0.509228271484375,-0.8411865234375,0.2208404541015625,-0.4899749755859375
1758447241953201400,0.519201416015625,-0.8323211669921875,0.2179718017578125,-0.496337890625
1758447241963173000,0.529173095703125,-0.8271484375,0.2113189697265625,-0.5043792724609375
1758447241973145300,0.539145263671875,-0.8329010009765625,0.2076568603515625,-0.5064239501953125
1758447241983117000,0.549116943359375,-0.8341827392578125,0.2070770263671875,-0.50555419921875
1758447241993090000,0.559090087890625,-0.83709716796875,0.2063751220703125,-0.5047454833984375
1758447242003062300,0.569062255859375,-0.842376708984375,0.2052154541015625,-0.5024261474609375
1758447242013034000,0.579033935546875,-0.844573974609375,0.2053375244140625,-0.499420166015625
1758447242023007200,0.58900732421875,-0.841827392578125,0.2053985595703125,-0.4958648681640625
1758447242032979200,0.598979248046875,-0.84515380859375,0.205047607421875,-0.4990386962890625
1758447242042951200,0.608951171875,-0.84405517578125,0.21063232421875,-0.49615478515625
1758447242052924200,0.618924072265625,-0.84002685546875,0.2132720947265625,-0.4893646240234375
1758447242062896000,0.628896240234375,-0.8292236328125,0.2124176025390625,-0.4796600341796875
1758447242072868000,0.6388681640625,-0.81622314453125,0.21038818359375,-0.4722442626953125
1758447242082840300,0.64884033203125,-0.806365966796875,0.210113525390625,-0.46832275390625
1758447242092813300,0.658813232421875,-0.8052520751953125,0.2122039794921875,-0.469390869140625
1758447242102785000,0.668784912109375,-0.8135223388671875,0.213287353515625,-0.476898193359375
1758447242112757200,0.67875732421875,-0.8231201171875,0.210601806640625,-0.4842681884765625
1758447242122730200,0.688730224609375,-0.822723388671875,0.208404541015625,-0.4826507568359375
1758447242132702200,0.6987021484375,-0.81884765625,0.2059478759765625,-0.4798583984375
1758447242142674200,0.708674072265625,-0.817657470703125,0.2084503173828125,-0.47613525390625
1758447242152647200,0.718647216796875,-0.81317138671875,0.2100067138671875,-0.47357177734375
1758447242162619100,0.728619140625,-0.8122406005859375,0.21173095703125,-0.4717254638671875
1758447242172591000,0.738591064453125,-0.817138671875,0.211456298828125,-0.4677734375
1758447242182563300,0.748563232421875,-0.831695556640625,0.2169342041015625,-0.469879150390625
1758447242192536000,0.7585361328125,-0.84368896484375,0.2221221923828125,-0.4723663330078125
1758447242202508300,0.76850830078125,-0.8451995849609375,0.2213897705078125,-0.473175048828125
1758447242212480300,0.778480224609375,-0.84600830078125,0.215240478515625,-0.475738525390625
1758447242222453000,0.788452880859375,-0.844512939453125,0.213043212890625,-0.477386474609375
1758447242232425200,0.79842529296875,-0.84039306640625,0.2137298583984375,-0.479278564453125
1758447242242397200,0.808397216796875,-0.8365936279296875,0.2151336669921875,-0.480743408203125
1758447242252370200,0.8183701171875,-0.8324432373046875,0.2159423828125,-0.4783935546875
1758447242262342100,0.828342041015625,-0.829345703125,0.212188720703125,-0.478851318359375
1758447242272314400,0.838314453125,-0.83160400390625,0.2089080810546875,-0.485198974609375
1758447242282286000,0.8482861328125,-0.8292694091796875,0.21002197265625,-0.48272705078125
1758447242292259300,0.85825927734375,-0.8170013427734375,0.208221435546875,-0.47314453125
1758447242302231300,0.868231201171875,-0.8105316162109375,0.2063140869140625,-0.4665374755859375
1758447242312203300,0.878203369140625,-0.8064727783203125,0.202728271484375,-0.4683380126953125
1758447242322176300,0.88817626953125,-0.806640625,0.2049102783203125,-0.4730987548828125
1758447242332148200,0.898148193359375,-0.8130645751953125,0.2037353515625,-0.476776123046875
1758447242342120200,0.9081201171875,-0.8269805908203125,0.203155517578125,-0.4823760986328125
1758447242352093200,0.91809326171875,-0.83856201171875,0.2079010009765625,-0.4884490966796875
1758447242362065400,0.9280654296875,-0.8442535400390625,0.2147369384765625,-0.490447998046875
1758447242372037000,0.938037109375,-0.843414306640625,0.2208709716796875,-0.48541259765625
1758447242382009300,0.94800927734375,-0.83099365234375,0.2221221923828125,-0.475921630859375
1758447242391982300,0.957982421875,-0.8154449462890625,0.2224578857421875,-0.4683837890625
1758447242401954000,0.9679541015625,-0.8076934814453125,0.220123291015625,-0.463531494140625
1758447242411926300,0.97792626953125,-0.8065948486328125,0.216461181640625,-0.4702606201171875
1758447242421899300,0.987899169921875,-0.813262939453125,0.212677001953125,-0.4809112548828125
1758447242431871200,0.997871337890625,-0.82110595703125,0.2130279541015625,-0.4900665283203125
1758447242441843200,1.00784326171875,-0.828094482421875,0.215179443359375,-0.495208740234375
1758447242451816400,1.01781640625,-0.836090087890625,0.2159881591796875,-0.498809814453125
1758447242461788200,1.0277880859375,-0.841705322265625,0.2180328369140625,-0.496307373046875
1758447242471760400,1.037760498046875,-0.840545654296875,0.2206573486328125,-0.493621826171875
1758447242481732000,1.047732177734375,-0.8386993408203125,0.2133026123046875,-0.497406005859375
1758447242491705000,1.057705078125,-0.8352203369140625,0.2058563232421875,-0.5021209716796875
1758447242501677300,1.06767724609375,-0.8232421875,0.2005157470703125,-0.50311279296875
1758447242511649000,1.07764892578125,-0.8103790283203125,0.191558837890625,-0.5041046142578125
1758447242521622300,1.087622314453125,-0.80078125,0.1851043701171875,-0.5010986328125
1758447242531594200,1.09759423828125,-0.7965850830078125,0.184844970703125,-0.5028533935546875
1758447242541566200,1.107566162109375,-0.802032470703125,0.190460205078125,-0.503997802734375
1758447242551539200,1.117539306640625,-0.81573486328125,0.1959228515625,-0.5024261474609375
1758447242561511200,1.12751123046875,-0.828155517578125,0.2035369873046875,-0.4999237060546875
1758447242571483100,1.137483154296875,-0.8326873779296875,0.20849609375,-0.493927001953125
1758447242581455000,1.147455078125,-0.827972412109375,0.2109375,-0.4860687255859375
1758447242591428400,1.157428466796875,-0.8241424560546875,0.208526611328125,-0.4815826416015625
1758447242601400000,1.167400146484375,-0.826629638671875,0.2062225341796875,-0.48870849609375
1758447242611372300,1.177372314453125,-0.8301849365234375,0.207275390625,-0.4921722412109375
1758447242621345000,1.187344970703125,-0.8279876708984375,0.2081298828125,-0.4919586181640625
1758447242631317000,1.19731689453125,-0.823150634765625,0.2115478515625,-0.4804534912109375
1758447242641289000,1.2072890625,-0.8161773681640625,0.2158355712890625,-0.46685791015625
1758447242651262000,1.217261962890625,-0.820098876953125,0.2249603271484375,-0.4484710693359375
1758447242661234000,1.22723388671875,-0.831329345703125,0.23651123046875,-0.445159912109375
1758447242671206000,1.237205810546875,-0.842926025390625,0.2368011474609375,-0.455078125
1758447242681177900,1.247177734375,-0.8487548828125,0.23291015625,-0.462158203125
1758447242691150800,1.25715087890625,-0.8525848388671875,0.227569580078125,-0.4679412841796875
1758447242701123000,1.267123046875,-0.8585968017578125,0.22845458984375,-0.4689788818359375
1758447242711094800,1.2770947265625,-0.8519439697265625,0.2332763671875,-0.4678192138671875
1758447242721068000,1.287068115234375,-0.8456878662109375,0.2326202392578125,-0.4687042236328125
1758447242731040000,1.2970400390625,-0.8453369140625,0.228515625,-0.469207763671875
1758447242741012000,1.307011962890625,-0.8412933349609375,0.224822998046875,-0.4743804931640625
1758447242750985000,1.31698486328125,-0.8423614501953125,0.21875,-0.4813995361328125
1758447242760957000,1.32695703125,-0.8431549072265625,0.2170867919921875,-0.48455810546875
1758447242770929000,1.336928955078125,-0.8354949951171875,0.212982177734375,-0.4831085205078125
1758447242780900900,1.34690087890625,-0.82757568359375,0.2123565673828125,-0.4822540283203125
1758447242790874000,1.3568740234375,-0.8294219970703125,0.217132568359375,-0.4808502197265625
1758447242800845800,1.366845703125,-0.8305816650390625,0.2208709716796875,-0.477081298828125
1758447242810818000,1.376818115234375,-0.8320465087890625,0.2200927734375,-0.4747772216796875
1758447242820791000,1.386791015625,-0.8364105224609375,0.215789794921875,-0.481658935546875
1758447242830762800,1.3967626953125,-0.838348388671875,0.2092437744140625,-0.4919586181640625
1758447242840735000,1.40673486328125,-0.8343505859375,0.20306396484375,-0.49932861328125
1758447242850708000,1.4167080078125,-0.8273468017578125,0.20074462890625,-0.500396728515625
1758447242860680000,1.426679931640625,-0.815460205078125,0.2048187255859375,-0.495697021484375
1758447242870652000,1.43665185546875,-0.8097381591796875,0.20501708984375,-0.488677978515625
1758447242880623900,1.446623779296875,-0.810150146484375,0.209442138671875,-0.479705810546875
1758447242890596900,1.456596923828125,-0.8076171875,0.214630126953125,-0.4766387939453125
1758447242900569000,1.466569091796875,-0.81292724609375,0.2158050537109375,-0.4793243408203125
1758447242910540800,1.476540771484375,-0.8260498046875,0.217193603515625,-0.4864959716796875
1758447242920513800,1.486513671875,-0.8353424072265625,0.2169189453125,-0.4878692626953125
1758447242930486000,1.496486083984375,-0.831390380859375,0.220733642578125,-0.4865264892578125
1758447242940457700,1.506457763671875,-0.8156890869140625,0.217529296875,-0.481658935546875
1758447242950430000,1.516429931640625,-0.800323486328125,0.206756591796875,-0.4764862060546875
1758447242960403000,1.52640283203125,-0.79119873046875,0.2039794921875,-0.47833251953125
1758447242970375000,1.536375,-0.7967376708984375,0.20660400390625,-0.478485107421875
1758447242980347000,1.546346923828125,-0.8090362548828125,0.21142578125,-0.4753875732421875
1758447242990319900,1.55631982421875,-0.83013916015625,0.2175750732421875,-0.4708251953125
1758447243000291800,1.566291748046875,-0.8486480712890625,0.224578857421875,-0.4705810546875
1758447243010263800,1.576263916015625,-0.8574371337890625,0.23138427734375,-0.4678955078125
1758447243020237000,1.586237060546875,-0.8587799072265625,0.2303924560546875,-0.4638824462890625
1758447243030208800,1.596208740234375,-0.852874755859375,0.2282562255859375,-0.4613494873046875
1758447243040181000,1.606180908203125,-0.8383026123046875,0.2253570556640625,-0.4637298583984375
1758447243050153000,1.616153076171875,-0.8258819580078125,0.2122802734375,-0.471099853515625
1758447243060126000,1.6261259765625,-0.82440185546875,0.2099761962890625,-0.4763336181640625
1758447243070098000,1.636097900390625,-0.8345947265625,0.2183074951171875,-0.47564697265625
1758447243080070100,1.646070068359375,-0.8457794189453125,0.2259063720703125,-0.472991943359375
1758447243090043000,1.65604296875,-0.859893798828125,0.2329864501953125,-0.468170166015625
1758447243100014800,1.666014892578125,-0.8743438720703125,0.2320404052734375,-0.47198486328125
1758447243109987000,1.675987060546875,-0.8750762939453125,0.23089599609375,-0.4731597900390625
1758447243119959800,1.685959716796875,-0.86553955078125,0.22857666015625,-0.4718017578125
1758447243129932000,1.69593212890625,-0.8602752685546875,0.2298126220703125,-0.4700469970703125
1758447243139904000,1.705904052734375,-0.8552398681640625,0.230865478515625,-0.4692230224609375
1758447243149876000,1.7158759765625,-0.8500213623046875,0.231109619140625,-0.467437744140625
1758447243159849000,1.725848876953125,-0.8446502685546875,0.2266998291015625,-0.4677276611328125
1758447243169821000,1.735821044921875,-0.8449249267578125,0.22406005859375,-0.475860595703125
1758447243179793000,1.74579296875,-0.8385162353515625,0.22552490234375,-0.479705810546875
1758447243189766000,1.755765869140625,-0.8298492431640625,0.2224273681640625,-0.4770050048828125
1758447243199738000,1.765738037109375,-0.82977294921875,0.221832275390625,-0.4700469970703125
1758447243209709800,1.775709716796875,-0.8295135498046875,0.2248992919921875,-0.46710205078125
1758447243219682000,1.78568212890625,-0.829559326171875,0.22637939453125,-0.4684906005859375
1758447243229655000,1.795655029296875,-0.82763671875,0.2230682373046875,-0.4691162109375
1758447243239627000,1.805626953125,-0.8223114013671875,0.216033935546875,-0.4706878662109375
1758447243249599000,1.815598876953125,-0.826141357421875,0.2080841064453125,-0.477447509765625
1758447243259572000,1.825572021484375,-0.8330078125,0.2091827392578125,-0.478179931640625
1758447243269544000,1.8355439453125,-0.8316497802734375,0.2111358642578125,-0.4783782958984375
1758447243279516000,1.845515869140625,-0.8271331787109375,0.2121734619140625,-0.4745330810546875
1758447243289489200,1.8554892578125,-0.828399658203125,0.2159423828125,-0.4774322509765625
1758447243299460900,1.8654609375,-0.8303680419921875,0.220306396484375,-0.481109619140625
1758447243309433000,1.87543310546875,-0.828643798828125,0.2187957763671875,-0.484130859375
1758447243319404800,1.88540478515625,-0.8306732177734375,0.21466064453125,-0.483306884765625
1758447243329377800,1.895377685546875,-0.8369903564453125,0.210723876953125,-0.482757568359375
1758447243339350000,1.90535009765625,-0.8419647216796875,0.209503173828125,-0.4894561767578125
1758447243349321700,1.91532177734375,-0.8453521728515625,0.205535888671875,-0.494659423828125
1758447243359295000,1.925294921875,-0.84490966796875,0.2053680419921875,-0.4918212890625
1758447243369267000,1.935266845703125,-0.84051513671875,0.20880126953125,-0.484039306640625
1758447243379239000,1.945239013671875,-0.8403167724609375,0.2141876220703125,-0.4752197265625
1758447243389212000,1.9552119140625,-0.8416748046875,0.2207489013671875,-0.468292236328125
1758447243399184000,1.965183837890625,-0.8377685546875,0.2247161865234375,-0.463104248046875
1758447243409155800,1.97515576171875,-0.8337860107421875,0.2224273681640625,-0.464324951171875
1758447243419128000,1.985128173828125,-0.8390350341796875,0.2188873291015625,-0.47296142578125
1758447243429101000,1.99510107421875,-0.841339111328125,0.21563720703125,-0.4773101806640625
1758447243439072800,2.00507275390625,-0.8355255126953125,0.212310791015625,-0.4730682373046875
1758447243449045000,2.015044921875,-0.830230712890625,0.210540771484375,-0.4611358642578125
1758447243459018000,2.02501806640625,-0.8258819580078125,0.2136383056640625,-0.4569549560546875
1758447243468990000,2.034989990234375,-0.828643798828125,0.2181396484375,-0.4571380615234375
1758447243478962000,2.0449619140625,-0.8446197509765625,0.222412109375,-0.4608001708984375
1758447243488934100,2.05493408203125,-0.8495941162109375,0.2227935791015625,-0.4668426513671875
1758447243498907000,2.064906982421875,-0.8480987548828125,0.21826171875,-0.4678802490234375
1758447243508878800,2.07487890625,-0.8455657958984375,0.216522216796875,-0.4633636474609375
1758447243518851000,2.08485107421875,-0.84088134765625,0.2273101806640625,-0.4537353515625
1758447243528823800,2.09482373046875,-0.8370208740234375,0.234466552734375,-0.449615478515625
1758447243538796000,2.104796142578125,-0.8336334228515625,0.2254180908203125,-0.4586181640625
1758447243548768000,2.11476806640625,-0.84185791015625,0.2074432373046875,-0.48663330078125
1758447243558740700,2.12474072265625,-0.8593597412109375,0.19659423828125,-0.508758544921875
1758447243568713000,2.134712890625,-0.865081787109375,0.202423095703125,-0.507476806640625
1758447243578685000,2.144684814453125,-0.8648529052734375,0.209259033203125,-0.4921417236328125
1758447243588657000,2.154656982421875,-0.85986328125,0.2178192138671875,-0.473358154296875
1758447243598630000,2.1646298828125,-0.8352508544921875,0.2187347412109375,-0.4669647216796875
1758447243608601900,2.174601806640625,-0.8164215087890625,0.2124176025390625,-0.46917724609375
1758447243618573800,2.18457373046875,-0.8124542236328125,0.1990814208984375,-0.4818878173828125
1758447243628547000,2.194547119140625,-0.8114471435546875,0.1922760009765625,-0.494903564453125
1758447243638518800,2.204518798828125,-0.8070068359375,0.1905364990234375,-0.5001373291015625
1758447243648491000,2.214490966796875,-0.8044281005859375,0.188079833984375,-0.5018768310546875
1758447243658463000,2.224462890625,-0.8056793212890625,0.1911468505859375,-0.4973297119140625
1758447243668435700,2.234435791015625,-0.80419921875,0.19775390625,-0.4913482666015625
1758447243678408000,2.244407958984375,-0.801116943359375,0.2045440673828125,-0.4852447509765625
1758447243688380000,2.2543798828125,-0.7989044189453125,0.2066802978515625,-0.4791259765625
1758447243698353000,2.264352783203125,-0.7969970703125,0.20361328125,-0.4766693115234375
1758447243708324900,2.274324951171875,-0.803955078125,0.1970977783203125,-0.4858245849609375
1758447243718297000,2.284297119140625,-0.8159942626953125,0.194732666015625,-0.4958343505859375
1758447243728269800,2.294269775390625,-0.83087158203125,0.202392578125,-0.4961395263671875
1758447243738241800,2.30424169921875,-0.8421630859375,0.2083740234375,-0.48870849609375
1758447243748214000,2.314214111328125,-0.8448028564453125,0.21044921875,-0.47662353515625
1758447243758186000,2.32418603515625,-0.8415679931640625,0.2136688232421875,-0.4673309326171875
1758447243768159000,2.334158935546875,-0.8332977294921875,0.2165985107421875,-0.4628448486328125
1758447243778131000,2.344130859375,-0.8356475830078125,0.219879150390625,-0.457061767578125
1758447243788103000,2.35410302734375,-0.83917236328125,0.2223052978515625,-0.4522247314453125
1758447243798076000,2.364075927734375,-0.84600830078125,0.2249603271484375,-0.4550018310546875
1758447243808048000,2.374048095703125,-0.8543701171875,0.2261810302734375,-0.4583892822265625
1758447243818019800,2.384019775390625,-0.868011474609375,0.2200164794921875,-0.4659881591796875
1758447243827992000,2.393991943359375,-0.87109375,0.21917724609375,-0.47003173828125
1758447243837965000,2.403965087890625,-0.8533477783203125,0.21978759765625,-0.46624755859375
1758447243847936800,2.413936767578125,-0.825836181640625,0.2122955322265625,-0.4662933349609375
1758447243857909000,2.423908935546875,-0.8025054931640625,0.2047119140625,-0.4674072265625
1758447243867882000,2.433882080078125,-0.79180908203125,0.2022857666015625,-0.470703125
1758447243877854000,2.44385400390625,-0.798553466796875,0.1999664306640625,-0.473724365234375
1758447243887826000,2.453825927734375,-0.8176116943359375,0.2064056396484375,-0.4739837646484375
1758447243897799000,2.463798828125,-0.8405303955078125,0.210113525390625,-0.4791259765625
1758447243907771000,2.47377099609375,-0.8663787841796875,0.2114105224609375,-0.48638916015625
1758447243917742800,2.483742919921875,-0.8766326904296875,0.215362548828125,-0.484893798828125
1758447243927714800,2.49371484375,-0.86920166015625,0.2205810546875,-0.47930908203125
1758447243937687800,2.503687744140625,-0.862518310546875,0.2202301025390625,-0.476531982421875
1758447243947660000,2.513659912109375,-0.8560943603515625,0.2178955078125,-0.47808837890625
1758447243957631700,2.5236318359375,-0.8496551513671875,0.2133636474609375,-0.4800262451171875
1758447243967605000,2.53360498046875,-0.844451904296875,0.206024169921875,-0.4838409423828125
1758447243977577000,2.543576904296875,-0.847198486328125,0.2010498046875,-0.4875946044921875
1758447243987549000,2.553548828125,-0.8497467041015625,0.2012176513671875,-0.487945556640625
1758447243997521000,2.56352099609375,-0.8463134765625,0.2061614990234375,-0.48492431640625
1758447244007494000,2.573493896484375,-0.84356689453125,0.2132110595703125,-0.4812164306640625
1758447244017465900,2.5834658203125,-0.8431549072265625,0.2150726318359375,-0.478485107421875
1758447244027437800,2.593437744140625,-0.8394317626953125,0.2110748291015625,-0.479644775390625
1758447244037411000,2.6034111328125,-0.8429412841796875,0.2075042724609375,-0.4835205078125
1758447244047382800,2.6133828125,-0.8463134765625,0.2064971923828125,-0.485107421875
1758447244057355000,2.62335498046875,-0.8397216796875,0.2039337158203125,-0.4841766357421875
1758447244067327000,2.633326904296875,-0.8336181640625,0.20428466796875,-0.484344482421875
1758447244077299700,2.6432998046875,-0.8357391357421875,0.2070770263671875,-0.485321044921875
1758447244087272000,2.65327197265625,-0.8355255126953125,0.209442138671875,-0.4860992431640625
1758447244097244000,2.663243896484375,-0.837432861328125,0.209808349609375,-0.489105224609375
1758447244107217000,2.673216796875,-0.8360748291015625,0.212249755859375,-0.48773193359375
1758447244117188900,2.68318896484375,-0.823455810546875,0.21038818359375,-0.4855499267578125
1758447244127161000,2.6931611328125,-0.8086395263671875,0.202423095703125,-0.48602294921875
1758447244137133800,2.7031337890625,-0.798065185546875,0.1927337646484375,-0.4852447509765625
1758447244147106000,2.71310595703125,-0.7999725341796875,0.191314697265625,-0.487640380859375
1758447244157078000,2.723078125,-0.8070068359375,0.194549560546875,-0.491973876953125
1758447244167050000,2.733050048828125,-0.8137359619140625,0.1957855224609375,-0.4907989501953125
1758447244177023000,2.74302294921875,-0.8178253173828125,0.1947784423828125,-0.4859619140625
1758447244186995000,2.752994873046875,-0.832550048828125,0.1972503662109375,-0.4858551025390625
1758447244196967000,2.762966796875,-0.8444061279296875,0.207733154296875,-0.4865570068359375
1758447244206940000,2.77293994140625,-0.84930419921875,0.215057373046875,-0.485137939453125
1758447244216912100,2.782912109375,-0.8507537841796875,0.21978759765625,-0.4811553955078125
1758447244226883800,2.7928837890625,-0.8423309326171875,0.2187957763671875,-0.478485107421875
1758447244236856000,2.80285595703125,-0.832672119140625,0.21405029296875,-0.477020263671875
1758447244246829000,2.8128291015625,-0.826385498046875,0.2108001708984375,-0.476043701171875
1758447244256800800,2.82280078125,-0.8284454345703125,0.2054290771484375,-0.48291015625
1758447244266773000,2.83277294921875,-0.834503173828125,0.2068023681640625,-0.4848480224609375
1758447244276746000,2.84274609375,-0.8410797119140625,0.2133331298828125,-0.4832916259765625
1758447244286718000,2.852718017578125,-0.850250244140625,0.2256622314453125,-0.479278564453125
1758447244296690000,2.86268994140625,-0.8575592041015625,0.2372589111328125,-0.469940185546875
1758447244306663000,2.872662841796875,-0.8603515625,0.2469024658203125,-0.455535888671875
1758447244316635000,2.882634765625,-0.857391357421875,0.2540435791015625,-0.45062255859375
1758447244326607000,2.892607177734375,-0.85369873046875,0.247100830078125,-0.4544219970703125
1758447244336578800,2.902578857421875,-0.847412109375,0.235382080078125,-0.461151123046875
1758447244346551800,2.9125517578125,-0.846923828125,0.2265167236328125,-0.4683074951171875
1758447244356524000,2.92252392578125,-0.845458984375,0.22247314453125,-0.4789886474609375
1758447244366495700,2.932495849609375,-0.8421630859375,0.214141845703125,-0.4811248779296875
1758447244376469000,2.942468994140625,-0.84375,0.2047576904296875,-0.486419677734375
1758447244386441000,2.95244091796875,-0.859344482421875,0.2041473388671875,-0.48681640625
1758447244396413000,2.962412841796875,-0.8686065673828125,0.2142486572265625,-0.48101806640625
1758447244406385000,2.972385009765625,-0.8647308349609375,0.2175140380859375,-0.4762725830078125
1758447244416358000,2.98235791015625,-0.8531646728515625,0.2099456787109375,-0.4764862060546875
1758447244426329900,2.992329833984375,-0.841278076171875,0.1926422119140625,-0.4832916259765625
1758447244436301800,3.0023017578125,-0.829986572265625,0.1737823486328125,-0.496612548828125
1758447244446275000,3.012275146484375,-0.8199615478515625,0.156036376953125,-0.5179443359375
1758447244456246800,3.022246826171875,-0.8135223388671875,0.131317138671875,-0.54425048828125
1758447244466219000,3.032218994140625,-0.80859375,0.1163330078125,-0.5649871826171875
1758447244476191000,3.04219091796875,-0.804595947265625,0.1177520751953125,-0.574859619140625
1758447244486164000,3.0521640625,-0.8030548095703125,0.126556396484375,-0.57513427734375
1758447244496136000,3.062135986328125,-0.793426513671875,0.1338653564453125,-0.569976806640625
1758447244506108200,3.072108154296875,-0.7811126708984375,0.13360595703125,-0.5676116943359375
1758447244516081000,3.082080810546875,-0.771636962890625,0.1246490478515625,-0.57373046875
1758447244526052900,3.092052978515625,-0.7630462646484375,0.109771728515625,-0.5881195068359375
1758447244536024800,3.10202490234375,-0.7615966796875,0.09796142578125,-0.60931396484375
1758447244545996800,3.111996826171875,-0.764556884765625,0.09393310546875,-0.62237548828125
1758447244555970000,3.121969970703125,-0.7574920654296875,0.0912933349609375,-0.6240234375
1758447244565941800,3.131941650390625,-0.743438720703125,0.088714599609375,-0.623687744140625
1758447244575914000,3.1419140625,-0.7337646484375,0.0868072509765625,-0.619049072265625
1758447244585887000,3.151886962890625,-0.727142333984375,0.0899200439453125,-0.61370849609375
1758447244595858700,3.161858642578125,-0.726531982421875,0.0978546142578125,-0.611236572265625
1758447244605831000,3.171830810546875,-0.7301483154296875,0.1008148193359375,-0.61212158203125
1758447244615804000,3.181803955078125,-0.733154296875,0.09906005859375,-0.6149444580078125
1758447244625775900,3.19177587890625,-0.732757568359375,0.09454345703125,-0.619354248046875
1758447244635747800,3.201747802734375,-0.7313385009765625,0.0904541015625,-0.6255950927734375
1758447244645719800,3.2117197265625,-0.728179931640625,0.0884552001953125,-0.624542236328125
1758447244655692800,3.22169287109375,-0.72406005859375,0.08575439453125,-0.6263427734375
1758447244665665000,3.2316650390625,-0.7279510498046875,0.0794525146484375,-0.631683349609375
1758447244675636700,3.24163671875,-0.7395477294921875,0.0780029296875,-0.63336181640625
1758447244685609700,3.251609619140625,-0.7458953857421875,0.0770263671875,-0.6365509033203125
1758447244695582000,3.26158203125,-0.751800537109375,0.0775604248046875,-0.639556884765625
1758447244705553700,3.2715537109375,-0.75927734375,0.0826416015625,-0.6390380859375
1758447244715526000,3.28152587890625,-0.7759552001953125,0.093505859375,-0.631439208984375
1758447244725499000,3.291498779296875,-0.796417236328125,0.1061248779296875,-0.6275634765625
1758447244735470800,3.301470947265625,-0.8119354248046875,0.108734130859375,-0.6280364990234375
1758447244745442800,3.31144287109375,-0.811187744140625,0.1073760986328125,-0.626068115234375
1758447244755415800,3.321415771484375,-0.7042694091796875,0.141387939453125,-0.5733184814453125
1758447244765387800,3.3313876953125,-0.6495208740234375,0.127166748046875,-0.548187255859375
1758447244775359700,3.34135986328125,-0.681060791015625,0.1174468994140625,-0.5775604248046875
1758447244785331700,3.351331787109375,-0.6941680908203125,0.1292572021484375,-0.5652923583984375
1758447244795304700,3.3613046875,-0.740081787109375,0.1205596923828125,-0.5838470458984375
1758447244805277000,3.37127685546875,-0.7350006103515625,0.0946502685546875,-0.61981201171875
1758447244815248600,3.38124853515625,-0.7242584228515625,0.06439208984375,-0.62933349609375
1758447244825222000,3.391221923828125,-0.70318603515625,0.048736572265625,-0.63739013671875
1758447244835193900,3.40119384765625,-0.687255859375,0.0569610595703125,-0.63458251953125
1758447244845165800,3.411165771484375,-0.7174835205078125,0.074554443359375,-0.63446044921875
1758447244855137800,3.4211376953125,-0.77783203125,0.1686553955078125,-0.600006103515625
1758447244865110800,3.43111083984375,-0.754852294921875,0.165008544921875,-0.540374755859375
1758447244875082800,3.441082763671875,-0.7215423583984375,0.1553802490234375,-0.545684814453125
1758447244885054700,3.4510546875,-0.7093658447265625,0.1486968994140625,-0.5551910400390625
1758447244895028000,3.461028076171875,-0.700042724609375,0.14569091796875,-0.5667572021484375
1758447244904999700,3.470999755859375,-0.703369140625,0.1656036376953125,-0.569671630859375
1758447244914972000,3.480971923828125,-0.7236328125,0.1868438720703125,-0.5723114013671875
1758447244924943600,3.490943603515625,-0.73992919921875,0.1682586669921875,-0.598785400390625
1758447244934916600,3.50091650390625,-0.7581024169921875,0.12261962890625,-0.663787841796875
1758447244944888800,3.510888916015625,-0.783294677734375,0.1236419677734375,-0.6971435546875
1758447244954860800,3.52086083984375,-0.7841644287109375,0.1185150146484375,-0.68841552734375
1758447244964833800,3.530833740234375,-0.7475433349609375,0.1171722412109375,-0.68011474609375
1758447244974805800,3.5408056640625,-0.723968505859375,0.10943603515625,-0.66900634765625
1758447244984777700,3.55077783203125,-0.7876129150390625,0.11663818359375,-0.6782989501953125
1758447244994749700,3.560749755859375,-0.8978118896484375,0.161651611328125,-0.6792144775390625
1758447245004723000,3.570722900390625,-0.951934814453125,0.1630859375,-0.67010498046875
1758447245014694700,3.580694580078125,-0.957794189453125,0.163421630859375,-0.65252685546875
1758447245024667000,3.5906669921875,-0.8903656005859375,0.2045135498046875,-0.569793701171875
1758447245034640000,3.600639892578125,-0.816192626953125,0.2002410888671875,-0.4300994873046875
1758447245044611600,3.610611572265625,-0.8338623046875,0.1029052734375,-0.6184844970703125
1758447245054583800,3.620583740234375,-0.7783050537109375,0.13702392578125,-0.6293792724609375
1758447245064556800,3.630556884765625,-0.7668304443359375,0.12408447265625,-0.5676116943359375
1758447245074528800,3.64052880859375,-0.78851318359375,0.1316680908203125,-0.55364990234375
1758447245084500700,3.650500732421875,-0.78466796875,0.155487060546875,-0.524017333984375
1758447245094473000,3.660472900390625,-0.8073272705078125,0.171142578125,-0.5257110595703125
1758447245104445700,3.67044580078125,-0.842315673828125,0.18145751953125,-0.5311126708984375
1758447245114417700,3.680417724609375,-0.850860595703125,0.1883087158203125,-0.534332275390625
1758447245124390000,3.690389892578125,-0.8530426025390625,0.1895599365234375,-0.53466796875
1758447245134362600,3.700362548828125,-0.8435211181640625,0.1929168701171875,-0.533416748046875
1758447245144334800,3.7103349609375,-0.820098876953125,0.1918792724609375,-0.5260772705078125
1758447245154306800,3.720306884765625,-0.8087310791015625,0.1896209716796875,-0.52099609375
1758447245164278800,3.73027880859375,-0.8040618896484375,0.189605712890625,-0.5206298828125
1758447245174251800,3.740251708984375,-0.7974700927734375,0.1885223388671875,-0.5188751220703125
1758447245184224000,3.75022412109375,-0.796142578125,0.1894073486328125,-0.5180816650390625
1758447245194195700,3.76019580078125,-0.7933807373046875,0.1913299560546875,-0.51904296875
1758447245204168700,3.770168701171875,-0.78985595703125,0.19842529296875,-0.5185546875
1758447245214141000,3.780140869140625,-0.7868194580078125,0.1999664306640625,-0.52215576171875
1758447245224112600,3.790112548828125,-0.784698486328125,0.1894683837890625,-0.534088134765625
1758447245234084900,3.8000849609375,-0.7821044921875,0.1783599853515625,-0.5412750244140625
1758447245244057900,3.810057861328125,-0.7800750732421875,0.1656341552734375,-0.554046630859375
1758447245254029800,3.82002978515625,-0.78741455078125,0.159271240234375,-0.5680999755859375
1758447245264001800,3.830001708984375,-0.790374755859375,0.161285400390625,-0.5722503662109375
1758447245273974800,3.839974853515625,-0.7841644287109375,0.16619873046875,-0.563812255859375
1758447245283946800,3.84994677734375,-0.7741851806640625,0.1713409423828125,-0.55169677734375
1758447245293919000,3.8599189453125,-0.75701904296875,0.1743011474609375,-0.5419464111328125
1758447245303890700,3.869890625,-0.7393035888671875,0.17266845703125,-0.5401763916015625
1758447245313863700,3.87986376953125,-0.72674560546875,0.1747894287109375,-0.5370330810546875
1758447245323836000,3.8898359375,-0.7248077392578125,0.182373046875,-0.532806396484375
1758447245333807600,3.8998076171875,-0.73773193359375,0.18768310546875,-0.5359039306640625
1758447245343780900,3.90978076171875,-0.76202392578125,0.1882171630859375,-0.550689697265625
1758447245353752800,3.9197529296875,-0.7894134521484375,0.179046630859375,-0.5745697021484375
1758447245363724800,3.929724853515625,-0.791259765625,0.1710357666015625,-0.579986572265625
1758447245373696800,3.93969677734375,-0.76873779296875,0.1608734130859375,-0.5706787109375
1758447245383669800,3.949669677734375,-0.7599334716796875,0.154449462890625,-0.561492919921875
1758447245393641700,3.959641845703125,-0.76708984375,0.1479034423828125,-0.5702667236328125
1758447245403613700,3.96961376953125,-0.7734375,0.1395263671875,-0.578033447265625
1758447245413587000,3.9795869140625,-0.7831573486328125,0.1348114013671875,-0.57659912109375
1758447245423558700,3.98955859375,-0.7948455810546875,0.13885498046875,-0.575103759765625
1758447245433531000,3.99953076171875,-0.804656982421875,0.14520263671875,-0.5748443603515625
1758447245443502800,4.0095029296875,-0.8177642822265625,0.1540069580078125,-0.5734100341796875
1758447245453475800,4.019475830078125,-0.828704833984375,0.1601409912109375,-0.5724029541015625
1758447245463447800,4.02944775390625,-0.8327178955078125,0.1661834716796875,-0.5771331787109375
1758447245473420000,4.039419921875,-0.8269195556640625,0.1613616943359375,-0.5862884521484375
1758447245483392800,4.049392822265625,-0.8187713623046875,0.1535491943359375,-0.590576171875
1758447245493364700,4.05936474609375,-0.802703857421875,0.14959716796875,-0.58697509765625
1758447245503337000,4.0693369140625,-0.79931640625,0.14813232421875,-0.58660888671875
1758447245513308700,4.07930859375,-0.80108642578125,0.15380859375,-0.5794219970703125
1758447245523282000,4.089281982421875,-0.8000946044921875,0.1599884033203125,-0.5669403076171875
1758447245533254000,4.09925390625,-0.80047607421875,0.1638031005859375,-0.553680419921875
1758447245543225900,4.109225830078125,-0.798309326171875,0.1688385009765625,-0.544708251953125
1758447245553198800,4.11919873046875,-0.7978668212890625,0.168426513671875,-0.54266357421875
1758447245563170800,4.1291708984375,-0.8154449462890625,0.1615142822265625,-0.5544586181640625
1758447245573142800,4.139142822265625,-0.82232666015625,0.159515380859375,-0.5614166259765625
1758447245583114800,4.14911474609375,-0.8089599609375,0.159881591796875,-0.559173583984375
1758447245593088000,4.159087890625,-0.79718017578125,0.1611480712890625,-0.55474853515625
1758447245603059700,4.169059814453125,-0.794891357421875,0.162017822265625,-0.5530548095703125
1758447245613032000,4.179031982421875,-0.7943267822265625,0.1637725830078125,-0.5540924072265625
1758447245623005000,4.1890048828125,-0.7924652099609375,0.164764404296875,-0.5539398193359375
1758447245632977000,4.198976806640625,-0.79644775390625,0.1533660888671875,-0.5618896484375
1758447245642948900,4.208948974609375,-0.8090057373046875,0.1480255126953125,-0.5688934326171875
1758447245652920800,4.2189208984375,-0.8124847412109375,0.1529998779296875,-0.5691375732421875
1758447245662893800,4.228893798828125,-0.809478759765625,0.1636810302734375,-0.5618133544921875
1758447245672865800,4.23886572265625,-0.8113861083984375,0.1725616455078125,-0.5519256591796875
1758447245682837800,4.248837646484375,-0.8140411376953125,0.18328857421875,-0.546875
1758447245692810800,4.258810791015625,-0.8119049072265625,0.1932373046875,-0.5419464111328125
1758447245702783000,4.268782958984375,-0.80780029296875,0.20013427734375,-0.5348358154296875
1758447245712754700,4.278754638671875,-0.79632568359375,0.1991729736328125,-0.5294189453125
1758447245722727000,4.288726806640625,-0.78570556640625,0.1960296630859375,-0.5310211181640625
1758447245732700000,4.298699951171875,-0.7780914306640625,0.2040252685546875,-0.5279388427734375
1758447245742671600,4.308671630859375,-0.7713470458984375,0.220611572265625,-0.5177459716796875
1758447245752643800,4.318643798828125,-0.7568817138671875,0.255859375,-0.4932403564453125
1758447245762616800,4.328616943359375,-0.7527008056640625,0.3100433349609375,-0.4574127197265625
1758447245772588800,4.3385888671875,-0.7489166259765625,0.337432861328125,-0.442962646484375
1758447245782560800,4.348560791015625,-0.7372283935546875,0.327301025390625,-0.448577880859375
1758447245792533000,4.358532958984375,-0.7182769775390625,0.3319549560546875,-0.4449005126953125
1758447245802505700,4.368505615234375,-0.709503173828125,0.3714141845703125,-0.4076385498046875
1758447245812478000,4.37847802734375,-0.6859130859375,0.4292755126953125,-0.3451995849609375
1758447245822449700,4.38844970703125,-0.6375274658203125,0.46197509765625,-0.29193115234375
1758447245832422700,4.398422607421875,-0.5845184326171875,0.4631195068359375,-0.27630615234375
1758447245842395000,4.408394775390625,-0.552520751953125,0.46624755859375,-0.2685546875
1758447245852366600,4.41836669921875,-0.528106689453125,0.4652862548828125,-0.291656494140625
1758447245862338800,4.4283388671875,-0.53009033203125,0.4700469970703125,-0.3153839111328125
1758447245872311800,4.438311767578125,-0.528350830078125,0.4716644287109375,-0.3367767333984375
1758447245882283800,4.44828369140625,-0.5482635498046875,0.46978759765625,-0.380523681640625
1758447245892255700,4.458255859375,-0.59698486328125,0.4341888427734375,-0.4401702880859375
1758447245902228700,4.468228759765625,-0.6171722412109375,0.3868560791015625,-0.516937255859375
1758447245912200700,4.47820068359375,-0.62164306640625,0.3589324951171875,-0.6018524169921875
1758447245922172700,4.488172607421875,-0.6116943359375,0.35028076171875,-0.6669769287109375
1758447245932145000,4.498144775390625,-0.5776824951171875,0.3740081787109375,-0.69482421875
1758447245942117600,4.50811767578125,-0.5690460205078125,0.4178009033203125,-0.72796630859375
1758447245952089900,4.51808984375,-0.55621337890625,0.426239013671875,-0.75830078125
1758447245962061800,4.528061767578125,-0.536712646484375,0.422698974609375,-0.8128509521484375
1758447245972034800,4.538034912109375,-0.494110107421875,0.3757781982421875,-0.914581298828125
1758447245982006800,4.5480068359375,-0.405059814453125,0.2612762451171875,-1.0169677734375
1758447245991979000,4.55797900390625,-0.3643798828125,0.17626953125,-1.1143798828125
1758447246001950700,4.56795068359375,-0.3902740478515625,0.1706085205078125,-1.1665191650390625
1758447246011923700,4.577923828125,-0.39453125,0.2005157470703125,-1.1367034912109375
1758447246021896000,4.58789599609375,-0.3565521240234375,0.23779296875,-1.0970306396484375
1758447246031867600,4.59786767578125,-0.31866455078125,0.2652130126953125,-1.0806427001953125
1758447246041841000,4.6078408203125,-0.3059844970703125,0.2703704833984375,-1.1158599853515625
1758447246051812900,4.617812744140625,-0.300872802734375,0.2704010009765625,-1.1378326416015625
1758447246061784800,4.627784912109375,-0.2285003662109375,0.27191162109375,-1.114044189453125
1758447246071756800,4.6377568359375,0.2365570068359375,0.3376312255859375,-1.1923370361328125
1758447246081729800,4.647729736328125,0.763427734375,0.4196319580078125,-1.145904541015625
1758447246091701800,4.65770166015625,0.1505584716796875,0.1656494140625,-0.8453369140625
1758447246101673700,4.667673828125,-0.05133056640625,0.18804931640625,-1.0118408203125
1758447246111647000,4.67764697265625,-0.121734619140625,0.146728515625,-1.2300567626953125
1758447246121618700,4.68761865234375,-0.127227783203125,0.279754638671875,-1.287872314453125
1758447246131591000,4.6975908203125,-0.096099853515625,0.2920074462890625,-1.1234893798828125
1758447246141562600,4.707562744140625,-0.0161590576171875,0.396453857421875,-0.974212646484375
1758447246151535900,4.717535888671875,-0.0885772705078125,0.5208587646484375,-0.918060302734375
1758447246161507800,4.7275078125,-0.293914794921875,0.63275146484375,-0.929901123046875
1758447246171479800,4.737479736328125,-0.34063720703125,0.631378173828125,-0.9840087890625
1758447246181452800,4.747452880859375,-0.232177734375,0.524200439453125,-1.0007781982421875
1758447246191424800,4.7574248046875,-0.1498565673828125,0.3646392822265625,-1.01416015625
1758447246201396700,4.767396728515625,0.095306396484375,0.21783447265625,-0.9707794189453125
1758447246211368700,4.77736865234375,0.268890380859375,0.1098175048828125,-0.8753662109375
1758447246221342000,4.787342041015625,0.1674652099609375,0.11614990234375,-0.80126953125
1758447246231313700,4.797313720703125,0.058746337890625,0.16070556640625,-0.7500762939453125
1758447246241286000,4.807285888671875,-0.0554351806640625,0.24786376953125,-0.7554931640625
1758447246251259000,4.8172587890625,-0.1372528076171875,0.3274383544921875,-0.818450927734375
1758447246261230600,4.827230712890625,-0.1690826416015625,0.3460540771484375,-0.857757568359375
1758447246271202800,4.837202880859375,-0.196441650390625,0.3745574951171875,-0.8936309814453125
1758447246281174800,4.8471748046875,-0.19677734375,0.3930206298828125,-1.0048370361328125
1758447246291147800,4.857147705078125,-0.180938720703125,0.38018798828125,-1.0677490234375
1758447246301119700,4.86711962890625,-0.174652099609375,0.347076416015625,-1.090972900390625
1758447246311092000,4.877092041015625,-0.201019287109375,0.31591796875,-1.162078857421875
1758447246321064700,4.887064697265625,-0.267822265625,0.33935546875,-1.2242431640625
1758447246331037000,4.897036865234375,-0.1551361083984375,0.575042724609375,-1.048492431640625
1758447246341009000,4.9070087890625,0.028076171875,0.6684417724609375,-0.874053955078125
1758447246350980900,4.91698095703125,0.123291015625,0.6286773681640625,-0.806976318359375
1758447246360953900,4.926953857421875,0.1267242431640625,0.6699066162109375,-0.8076629638671875
1758447246370925800,4.93692578125,0.0688629150390625,0.7059173583984375,-0.943572998046875
1758447246380897800,4.946897705078125,-0.062957763671875,0.636566162109375,-1.127044677734375
1758447246390869800,4.956869873046875,-0.0664825439453125,0.52191162109375,-1.3173980712890625
1758447246400843000,4.966843017578125,0.0953521728515625,0.3760986328125,-1.49755859375
1758447246410814700,4.976814697265625,0.18359375,0.3183441162109375,-1.5382537841796875
1758447246420787000,4.986786865234375,0.003326416015625,0.0707855224609375,-1.8215179443359375
1758447246430760000,4.996760009765625,-0.0814208984375,-0.24664306640625,-2.109039306640625
1758447246440731600,5.006731689453125,-0.06982421875,0.3296661376953125,-1.769317626953125
1758447246450704000,5.016703857421875,-0.363372802734375,0.743988037109375,-1.295745849609375
1758447246460675800,5.02667578125,0.0760650634765625,0.9060516357421875,-0.4552001953125
1758447246470648800,5.03664892578125,0.2389373779296875,0.819183349609375,0.1976776123046875
1758447246480620800,5.046620849609375,-0.18218994140625,0.66680908203125,0.679656982421875
1758447246490592800,5.0565927734375,-0.2632598876953125,0.7324676513671875,0.313446044921875
1758447246500565800,5.066565673828125,-0.158233642578125,0.4046630859375,0.1288909912109375
1758447246510538000,5.0765380859375,0.024261474609375,0.03277587890625,-0.1439361572265625
1758447246520509700,5.086509765625,0.0395355224609375,0.005615234375,-0.510833740234375
1758447246530482000,5.09648193359375,-0.130706787109375,0.029266357421875,-0.580841064453125
1758447246540455000,5.106454833984375,-0.10369873046875,0.0745697021484375,-0.4706573486328125
1758447246550426600,5.116426513671875,0.1484832763671875,0.2189483642578125,-0.46697998046875
1758447246560398800,5.12639892578125,0.266937255859375,0.3486328125,-0.409637451171875
1758447246570371800,5.136371826171875,0.2137298583984375,0.3625640869140625,-0.29315185546875
1758447246580343800,5.14634375,0.0569915771484375,0.4476776123046875,-0.3092193603515625
1758447246590315800,5.156315673828125,-0.1926116943359375,0.5677947998046875,-0.5680694580078125
1758447246600288000,5.1662880859375,-0.3383026123046875,0.651397705078125,-0.8081512451171875
1758447246610260700,5.1762607421875,-0.0803070068359375,0.6417388916015625,-0.609527587890625
1758447246620233000,5.18623291015625,-0.1016693115234375,0.5801544189453125,-0.5615386962890625
1758447246630205200,5.196205078125,0.003631591796875,0.5877838134765625,-0.567840576171875
1758447246640178200,5.20617822265625,0.1266937255859375,0.5994415283203125,-0.4324951171875
1758447246650150100,5.216150146484375,0.2579345703125,0.5010986328125,-0.669708251953125
1758447246660122000,5.2261220703125,0.29583740234375,0.4084320068359375,-1.1022186279296875
1758447246670094000,5.236093994140625,0.325347900390625,0.5196533203125,-1.240814208984375
1758447246680067000,5.246067138671875,0.0920562744140625,0.5547027587890625,-0.9554443359375
1758447246690039000,5.2560390625,0.0506134033203125,0.7688446044921875,-1.101348876953125
1758447246700011000,5.266010986328125,0.0182647705078125,1.0500335693359375,-1.369873046875
1758447246709984000,5.27598388671875,-0.160797119140625,1.0519561767578125,-1.49652099609375
1758447246719956200,5.285956298828125,-0.2594146728515625,0.9217987060546875,-1.3929901123046875
1758447246729928000,5.295927978515625,-0.2375030517578125,0.83154296875,-1.104095458984375
1758447246739900200,5.305900146484375,-0.0834503173828125,0.62628173828125,-0.7990570068359375
1758447246749873200,5.315873046875,-0.0324249267578125,0.5582122802734375,-0.497039794921875
1758447246759845000,5.32584521484375,-0.028594970703125,0.5318603515625,-0.2780609130859375
1758447246769817000,5.335817138671875,-0.0258636474609375,0.47222900390625,-0.050323486328125
1758447246779789300,5.345789306640625,0.05804443359375,0.40460205078125,0.0720672607421875
1758447246789762000,5.355761962890625,0.2209014892578125,0.3612060546875,0.1390533447265625
1758447246799734000,5.365734130859375,0.43408203125,0.62664794921875,0.3938140869140625
1758447246809706200,5.375706298828125,0.5258941650390625,0.9098052978515625,0.5392608642578125
1758447246819679000,5.385678955078125,0.4788665771484375,0.916900634765625,0.517486572265625
1758447246829651200,5.395651123046875,0.1492462158203125,0.85235595703125,0.50299072265625
1758447246839623000,5.405622802734375,-0.1042938232421875,0.7389373779296875,0.4712982177734375
1758447246849595100,5.41559521484375,-0.2609405517578125,0.71343994140625,0.4563751220703125
1758447246859568000,5.425568115234375,-0.1396636962890625,0.8243408203125,0.4181671142578125
1758447246869540000,5.4355400390625,-0.003631591796875,1.7708740234375,0.47222900390625
1758447246879512000,5.445511962890625,0.0157012939453125,2.5355377197265625,0.5579071044921875
1758447246889485000,5.455485107421875,0.1505279541015625,3.085357666015625,0.7132720947265625
1758447246899457000,5.46545703125,0.3715972900390625,2.8174896240234375,0.3003997802734375
1758447246909429000,5.475428955078125,0.462432861328125,2.149383544921875,-0.2530517578125
1758447246919401200,5.485401123046875,0.3410491943359375,1.667877197265625,-0.480743408203125
1758447246929374000,5.4953740234375,-0.0503692626953125,1.3271026611328125,-0.2497406005859375
1758447246939346200,5.50534619140625,-0.4878387451171875,1.164764404296875,0.3237762451171875
1758447246949318100,5.515318115234375,-0.484619140625,0.960723876953125,0.4295196533203125
1758447246959291000,5.525290771484375,-0.229248046875,0.7585601806640625,0.315673828125
1758447246969263000,5.53526318359375,-0.080902099609375,0.7127532958984375,0.2585906982421875
1758447246979235000,5.545235107421875,-0.0397796630859375,0.7527923583984375,0.2717742919921875
1758447246989207000,5.55520703125,-0.0355682373046875,0.800567626953125,0.301483154296875
1758447246999180000,5.565179931640625,-0.03106689453125,0.8582763671875,0.3057861328125
1758447247009152300,5.57515234375,-0.0229339599609375,0.9220733642578125,0.3308868408203125
1758447247019124000,5.5851240234375,-0.0122222900390625,0.9614410400390625,0.3394317626953125
1758447247029097000,5.595096923828125,-0.0107879638671875,0.988006591796875,0.31341552734375
1758447247039069200,5.605069091796875,-0.02978515625,1.004150390625,0.2866363525390625
1758447247049041200,5.615041259765625,-0.0667877197265625,1.0049591064453125,0.267547607421875
1758447247059013000,5.62501318359375,-0.10675048828125,0.99847412109375,0.26959228515625
1758447247068986000,5.634986083984375,-0.12127685546875,0.9857330322265625,0.2836151123046875
1758447247078958000,5.6449580078125,-0.1113739013671875,0.9736480712890625,0.28033447265625
1758447247088930000,5.654929931640625,-0.07965087890625,0.968597412109375,0.280731201171875
1758447247098902000,5.664902099609375,-0.0316162109375,0.961212158203125,0.2947235107421875
1758447247108875000,5.674875,0.00933837890625,0.962554931640625,0.321990966796875
1758447247118847200,5.68484716796875,0.0314483642578125,0.967254638671875,0.341644287109375
1758447247128819000,5.69481884765625,0.0257568359375,0.96844482421875,0.35858154296875
1758447247138792000,5.7047919921875,-0.0017547607421875,0.9623260498046875,0.3727874755859375
1758447247148764200,5.71476416015625,-0.037841796875,0.9603271484375,0.3868255615234375
1758447247158736000,5.72473583984375,-0.0556793212890625,0.93450927734375,0.3661346435546875
1758447247168708000,5.7347080078125,-0.0735626220703125,0.8959808349609375,0.3354339599609375
1758447247178681000,5.74468115234375,-0.100189208984375,0.884185791015625,0.331787109375
1758447247188653000,5.754653076171875,-0.1192626953125,0.8899383544921875,0.3381500244140625
1758447247198625000,5.764625,-0.1306915283203125,0.8945465087890625,0.332427978515625
1758447247208598000,5.774597900390625,-0.15338134765625,0.909423828125,0.33197021484375
1758447247218570000,5.784570068359375,-0.174285888671875,0.9306793212890625,0.3424224853515625
1758447247228542200,5.794542236328125,-0.1751556396484375,0.9424285888671875,0.3480072021484375
1758447247238514200,5.80451416015625,-0.15826416015625,0.940948486328125,0.347381591796875
1758447247248487000,5.81448681640625,-0.129058837890625,0.935272216796875,0.3415374755859375
1758447247258459100,5.824459228515625,-0.1045379638671875,0.9366302490234375,0.3417816162109375
1758447247268431000,5.83443115234375,-0.0911712646484375,0.9403533935546875,0.3437042236328125
1758447247278404000,5.844404052734375,-0.0840911865234375,0.939910888671875,0.341400146484375
1758447247288376000,5.8543759765625,-0.071990966796875,0.93792724609375,0.336669921875
1758447247298348300,5.864348388671875,-0.060455322265625,0.9440765380859375,0.33343505859375
1758447247308320000,5.874320068359375,-0.052337646484375,0.9438018798828125,0.3316650390625
1758447247318293000,5.88429296875,-0.0491943359375,0.93902587890625,0.3289337158203125
1758447247328265200,5.89426513671875,-0.0453338623046875,0.950225830078125,0.3351898193359375
1758447247338237000,5.90423681640625,-0.043304443359375,0.9398956298828125,0.3240203857421875
1758447247348209200,5.914209228515625,-0.05279541015625,0.93267822265625,0.3237152099609375
1758447247358182100,5.92418212890625,-0.0606689453125,0.948638916015625,0.336669921875
1758447247368154000,5.934154052734375,-0.0634765625,0.96185302734375,0.3394775390625
1758447247378126000,5.9441259765625,-0.0634918212890625,0.975341796875,0.3411865234375
1758447247388099000,5.95409912109375,-0.058990478515625,1.0289306640625,0.374908447265625
1758447247398071000,5.964071044921875,-0.0483856201171875,1.047943115234375,0.4018402099609375
1758447247408043300,5.974043212890625,-0.04754638671875,1.0357513427734375,0.411651611328125
1758447247418015000,5.984014892578125,-0.04608154296875,1.0662841796875,0.438812255859375
1758447247427988000,5.993988037109375,-0.0279541015625,1.0866851806640625,0.426727294921875
1758447247437960200,6.003960205078125,-0.0178070068359375,1.0061187744140625,0.3274078369140625
1758447247447932000,6.013931884765625,-0.0234375,0.83428955078125,0.230072021484375
1758447247457905200,6.0239052734375,-0.0381317138671875,0.71875,0.1913604736328125
1758447247467877000,6.033877197265625,-0.063262939453125,0.700469970703125,0.23004150390625
1758447247477849000,6.04384912109375,-0.089080810546875,0.7454986572265625,0.2977752685546875
1758447247487821000,6.053821044921875,-0.097076416015625,0.83197021484375,0.305450439453125
1758447247497794000,6.0637939453125,-0.12384033203125,0.895782470703125,0.3107147216796875
1758447247507766000,6.07376611328125,-0.1503448486328125,0.9407958984375,0.3288421630859375
1758447247517738000,6.083738037109375,-0.1490020751953125,0.9645233154296875,0.330291748046875
1758447247527711200,6.093711181640625,-0.14617919921875,0.94403076171875,0.343231201171875
1758447247537683000,6.103682861328125,-0.124420166015625,0.9204254150390625,0.3667144775390625
1758447247547655200,6.1136552734375,-0.0782928466796875,0.8671417236328125,0.30731201171875
1758447247557627100,6.123627197265625,-0.0449981689453125,0.86859130859375,0.352569580078125
1758447247567600000,6.13360009765625,-0.028839111328125,0.934814453125,0.443084716796875
1758447247577572000,6.143572021484375,0.0100860595703125,0.9516143798828125,0.4084320068359375
1758447247587544300,6.15354443359375,0.0128173828125,0.9889373779296875,0.42156982421875
1758447247597516000,6.16351611328125,-0.004791259765625,1.0081787109375,0.4517059326171875
1758447247607489000,6.173489013671875,-0.0224456787109375,0.958526611328125,0.4369964599609375
1758447247617461200,6.183461181640625,-0.0381622314453125,0.919342041015625,0.44287109375
1758447247627432700,6.1934326171875,-0.043121337890625,0.884033203125,0.432586669921875
1758447247637405700,6.20340576171875,-0.04638671875,0.8668060302734375,0.4139251708984375
1758447247647377700,6.213377685546875,-0.0521697998046875,0.86260986328125,0.3882293701171875
1758447247657349600,6.223349609375,-0.0431671142578125,0.87127685546875,0.3903656005859375
1758447247667321600,6.233321533203125,-0.0459747314453125,0.883514404296875,0.4066314697265625
1758447247677294800,6.243294921875,-0.042327880859375,0.9090118408203125,0.4098968505859375
1758447247687266600,6.2532666015625,-0.042388916015625,0.9792327880859375,0.4521942138671875
1758447247697238800,6.26323876953125,-0.022796630859375,1.0303955078125,0.484466552734375
1758447247707211800,6.273211669921875,0.0313262939453125,0.98468017578125,0.4214019775390625
1758447247717183500,6.28318359375,0.0708465576171875,0.919952392578125,0.3385772705078125
1758447247727155700,6.29315576171875,0.078521728515625,0.91033935546875,0.3149566650390625
1758447247737127700,6.303127685546875,0.0846405029296875,0.914520263671875,0.285888671875
1758447247747100700,6.3131005859375,0.052642822265625,0.907806396484375,0.267730712890625
1758447247757072600,6.32307275390625,0.01995849609375,0.932708740234375,0.30206298828125
1758447247767044900,6.333044921875,0.013275146484375,0.9469757080078125,0.317779541015625
1758447247777017600,6.343017578125,0.0095672607421875,0.9458160400390625,0.3246917724609375
1758447247786989600,6.352989501953125,-0.0078125,0.9500274658203125,0.338043212890625
1758447247796961800,6.3629619140625,-0.0048065185546875,0.94378662109375,0.3279571533203125
1758447247806933800,6.372933837890625,-0.0005340576171875,0.946807861328125,0.331878662109375
1758447247816906800,6.38290673828125,-0.005340576171875,0.936920166015625,0.326263427734375
1758447247826878700,6.392878662109375,-0.0076751708984375,0.9319305419921875,0.3279876708984375
1758447247836850700,6.4028505859375,-0.0038299560546875,0.9257354736328125,0.326873779296875
1758447247846822700,6.41282275390625,0.0013885498046875,0.9193115234375,0.325927734375
1758447247856796000,6.4227958984375,0.0059051513671875,0.9154815673828125,0.3343048095703125
1758447247866767600,6.432767578125,0.0128173828125,0.900909423828125,0.337371826171875
1758447247876739800,6.44273974609375,0.0232086181640625,0.891448974609375,0.33697509765625
1758447247886712800,6.452712890625,0.029693603515625,0.886932373046875,0.3325958251953125
1758447247896684500,6.4626845703125,0.0196685791015625,0.889617919921875,0.326446533203125
1758447247906656800,6.47265673828125,-0.0010986328125,0.8895416259765625,0.3209381103515625
1758447247916628500,6.48262841796875,-0.0146331787109375,0.8877716064453125,0.311767578125
1758447247926601700,6.492601806640625,-0.0250244140625,0.89788818359375,0.2977142333984375
1758447247936573700,6.50257373046875,-0.0381011962890625,0.9098358154296875,0.290679931640625
1758447247946545700,6.512545654296875,-0.04864501953125,0.919097900390625,0.279388427734375
1758447247956518700,6.5225185546875,-0.0589141845703125,0.9331817626953125,0.2719879150390625
1758447247966490600,6.53249072265625,-0.0662384033203125,0.9666595458984375,0.27081298828125
1758447247976462600,6.542462646484375,-0.073516845703125,1.0146484375,0.2728271484375
1758447247986434800,6.552434814453125,-0.07879638671875,1.06549072265625,0.2708282470703125
1758447247996407800,6.56240771484375,-0.0802154541015625,1.09490966796875,0.2583770751953125
1758447248006379500,6.572379638671875,-0.0791015625,1.0967864990234375,0.2376861572265625
1758447248016351700,6.582351806640625,-0.075439453125,1.07305908203125,0.2108917236328125
1758447248026324700,6.59232470703125,-0.0693206787109375,1.039306640625,0.1932525634765625
1758447248036296700,6.602296630859375,-0.0592498779296875,1.01043701171875,0.185272216796875
1758447248046268700,6.6122685546875,-0.0618896484375,0.9876556396484375,0.177825927734375
1758447248056240600,6.62224072265625,-0.0717315673828125,0.9679107666015625,0.17352294921875
1758447248066213600,6.632213623046875,-0.0832061767578125,0.9484405517578125,0.1753692626953125
1758447248076185600,6.642185546875,-0.102813720703125,0.9396820068359375,0.1817626953125
1758447248086157600,6.652157470703125,-0.123748779296875,0.9426727294921875,0.204071044921875
1758447248096129500,6.662129638671875,-0.1380615234375,0.9471435546875,0.229248046875
1758447248106102800,6.672102783203125,-0.140289306640625,0.9359130859375,0.2451934814453125
1758447248116074500,6.682074462890625,-0.133270263671875,0.9194488525390625,0.250579833984375
1758447248126046700,6.692046630859375,-0.124053955078125,0.9134979248046875,0.2511138916015625
1758447248136019700,6.702019775390625,-0.107574462890625,0.9142303466796875,0.2485809326171875
1758447248145991700,6.71199169921875,-0.09552001953125,0.913909912109375,0.241668701171875
1758447248155963600,6.721963623046875,-0.0829925537109375,0.9184417724609375,0.241729736328125
1758447248165935900,6.731935791015625,-0.06396484375,0.931396484375,0.2531585693359375
1758447248175908600,6.74190869140625,-0.0383148193359375,0.94085693359375,0.269561767578125
1758447248185880600,6.751880615234375,-0.00604248046875,0.9434356689453125,0.2842864990234375
1758447248195852800,6.761852783203125,0.0304718017578125,0.944305419921875,0.292633056640625
1758447248205825500,6.771825439453125,0.0604248046875,0.956878662109375,0.3006744384765625
1758447248215797800,6.7817978515625,0.0769805908203125,0.9758758544921875,0.3064422607421875
1758447248225769700,6.791769775390625,0.08416748046875,0.9884490966796875,0.301361083984375
1758447248235741700,6.80174169921875,0.0827484130859375,0.9763641357421875,0.277252197265625
1758447248245714700,6.811714599609375,0.0735626220703125,0.960968017578125,0.247039794921875
1758447248255686700,6.821686767578125,0.0626983642578125,0.958740234375,0.220703125
1758447248265658600,6.83165869140625,0.04803466796875,0.9705810546875,0.209686279296875
1758447248275630600,6.841630615234375,0.022979736328125,0.982269287109375,0.20941162109375
1758447248285603800,6.851603759765625,0.0046234130859375,0.9696807861328125,0.20001220703125
1758447248295575600,6.861575439453125,-0.01031494140625,0.95751953125,0.1925201416015625
1758447248305547800,6.8715478515625,-0.018798828125,0.967071533203125,0.1978912353515625
1758447248315520800,6.881520751953125,-0.023590087890625,0.9873809814453125,0.209197998046875
1758447248325492700,6.89149267578125,-0.029571533203125,1.00933837890625,0.2214813232421875
1758447248335464700,6.901464599609375,-0.0341796875,1.0194244384765625,0.2270660400390625
1758447248345436700,6.911436767578125,-0.0394439697265625,1.009735107421875,0.226104736328125
1758447248355409700,6.92140966796875,-0.042694091796875,0.9926910400390625,0.2203216552734375
1758447248365381600,6.931381591796875,-0.0488739013671875,0.9816741943359375,0.2182159423828125
1758447248375353600,6.941353515625,-0.0618896484375,0.983001708984375,0.2215728759765625
1758447248385326600,6.95132666015625,-0.079986572265625,0.9862518310546875,0.227081298828125
1758447248395298800,6.961298828125,-0.090606689453125,0.9817657470703125,0.224639892578125
1758447248405270500,6.9712705078125,-0.0945281982421875,0.971435546875,0.2158355712890625
1758447248415242800,6.98124267578125,-0.0922698974609375,0.96783447265625,0.2061920166015625
1758447248425215700,6.9912158203125,-0.091552734375,0.99041748046875,0.2053375244140625
1758447248435187500,7.0011875,-0.1012115478515625,1.03765869140625,0.2141265869140625
1758447248445159700,7.01115966796875,-0.1192474365234375,1.093658447265625,0.228515625
1758447248455131600,7.021131591796875,-0.1403350830078125,1.1409912109375,0.2364654541015625
1758447248465104600,7.031104736328125,-0.1533966064453125,1.1710968017578125,0.229248046875
1758447248475076600,7.04107666015625,-0.1607818603515625,1.1772308349609375,0.2158660888671875
1758447248485048800,7.051048828125,-0.157073974609375,1.16802978515625,0.200347900390625
1758447248495021600,7.061021484375,-0.1557464599609375,1.1439361572265625,0.1785430908203125
1758447248504993800,7.070993896484375,-0.1529388427734375,1.1284332275390625,0.1628570556640625
1758447248514965800,7.0809658203125,-0.1269073486328125,1.135650634765625,0.1540069580078125
1758447248524937700,7.090937744140625,-0.0693359375,1.143402099609375,0.1497650146484375
1758447248534910700,7.10091064453125,-0.0162353515625,1.1527862548828125,0.1497344970703125
1758447248544882700,7.110882568359375,0.01800537109375,1.152252197265625,0.1334381103515625
1758447248554854700,7.120854736328125,0.0424041748046875,1.1529388427734375,0.1100311279296875
1758447248564827600,7.13082763671875,0.06256103515625,1.1795196533203125,0.1221160888671875
1758447248574800000,7.1407998046875,0.0796356201171875,1.16107177734375,0.123565673828125
1758447248584771600,7.150771484375,0.079071044921875,1.1322784423828125,0.133331298828125
1758447248594743800,7.160743896484375,0.066192626953125,1.1022186279296875,0.162872314453125
1758447248604716800,7.170716796875,0.049774169921875,1.0538482666015625,0.2017974853515625
1758447248614688500,7.1806884765625,0.0301361083984375,0.992156982421875,0.2494049072265625
1758447248624661200,7.1906611328125,0.017822265625,0.9467620849609375,0.3060455322265625
1758447248634634200,7.20063427734375,0.017303466796875,0.90887451171875,0.362518310546875
1758447248644606200,7.210606201171875,0.026947021484375,0.8765106201171875,0.4123382568359375
1758447248654578200,7.220578125,0.036529541015625,0.869781494140625,0.471435546875
1758447248664550400,7.23055029296875,0.0300445556640625,0.8867340087890625,0.5244140625
1758447248674523100,7.240523193359375,0.0261383056640625,0.9207763671875,0.55743408203125
1758447248684495000,7.2504951171875,0.0406036376953125,0.951690673828125,0.555206298828125
1758447248694467300,7.26046728515625,0.0572509765625,0.988250732421875,0.55908203125
1758447248704439000,7.27043896484375,0.060577392578125,1.0328216552734375,0.547821044921875
1758447248714412300,7.280412353515625,0.09576416015625,1.062652587890625,0.521453857421875
1758447248724384300,7.29038427734375,0.1670379638671875,1.0681915283203125,0.4792633056640625
1758447248734356200,7.300356201171875,0.2165069580078125,1.054534912109375,0.421478271484375
1758447248744329200,7.3103291015625,0.2120208740234375,1.0348968505859375,0.3681182861328125
1758447248754301200,7.32030126953125,0.196014404296875,1.0080413818359375,0.341156005859375
1758447248764273200,7.330273193359375,0.18011474609375,1.0080718994140625,0.3202362060546875
1758447248774245400,7.340245361328125,0.174407958984375,1.0338592529296875,0.3244781494140625
1758447248784218400,7.35021826171875,0.1824188232421875,1.04608154296875,0.3656158447265625
1758447248794190000,7.360190185546875,0.1410980224609375,1.0372772216796875,0.3789520263671875
1758447248804162300,7.370162353515625,0.1018218994140625,0.9918365478515625,0.3252716064453125
1758447248814135300,7.38013525390625,0.099639892578125,0.9632415771484375,0.3131561279296875
1758447248824107300,7.390107177734375,0.1000518798828125,0.96343994140625,0.3087158203125
1758447248834079200,7.400079345703125,0.0699310302734375,0.955169677734375,0.24639892578125
1758447248844051200,7.41005126953125,0.05322265625,0.9640350341796875,0.200286865234375
1758447248854024200,7.420024169921875,0.0582122802734375,0.963531494140625,0.175933837890625
1758447248863996200,7.42999609375,0.0609893798828125,0.9368743896484375,0.159912109375
1758447248873968000,7.439968017578125,0.0916290283203125,0.8932037353515625,0.19586181640625
1758447248883940000,7.449940185546875,0.0966644287109375,0.8212127685546875,0.2430267333984375
1758447248893913300,7.459913330078125,0.14837646484375,0.74359130859375,0.300018310546875
1758447248903885000,7.469885009765625,0.168914794921875,0.6822052001953125,0.32855224609375
1758447248913857300,7.479857177734375,0.135894775390625,0.6390228271484375,0.35009765625
1758447248923830300,7.489830322265625,0.07415771484375,0.598358154296875,0.3631591796875
1758447248933802200,7.49980224609375,0.021270751953125,0.5697479248046875,0.358612060546875
1758447248943774200,7.509774169921875,0.001190185546875,0.5389404296875,0.352630615234375
1758447248953746400,7.519746337890625,0.009246826171875,0.5178985595703125,0.3444061279296875
1758447248963719200,7.52971923828125,0.033447265625,0.5031585693359375,0.3303680419921875
1758447248973691100,7.539691162109375,0.07177734375,0.48626708984375,0.3129730224609375
1758447248983663400,7.549663330078125,0.1208648681640625,0.4747467041015625,0.3090362548828125
1758447248993636000,7.559635986328125,0.163970947265625,0.48553466796875,0.31573486328125
1758447249003608300,7.5696083984375,0.1954803466796875,0.516937255859375,0.31243896484375
1758447249013580300,7.579580322265625,0.2317657470703125,0.5627899169921875,0.2909393310546875
1758447249023552300,7.58955224609375,0.2751007080078125,0.61859130859375,0.2577972412109375
1758447249033525200,7.599525146484375,0.3354949951171875,0.6874847412109375,0.2160186767578125
1758447249043497200,7.609497314453125,0.37884521484375,0.7800140380859375,0.1787109375
1758447249053469200,7.61946923828125,0.4359893798828125,0.880859375,0.1479034423828125
1758447249063442200,7.629442138671875,0.502899169921875,0.9957275390625,0.1085662841796875
1758447249073414400,7.639414306640625,0.567108154296875,1.1054534912109375,0.060302734375
1758447249083386000,7.64938623046875,0.623779296875,1.2205047607421875,-0.02203369140625
1758447249093358300,7.6593583984375,0.6317291259765625,1.3072509765625,-0.0711822509765625
1758447249103331300,7.669331298828125,0.612213134765625,1.35992431640625,-0.0861053466796875
1758447249113303300,7.67930322265625,0.6046905517578125,1.41192626953125,-0.0921173095703125
1758447249123275300,7.689275146484375,0.5822296142578125,1.427947998046875,-0.0739288330078125
1758447249133247200,7.699247314453125,0.5535125732421875,1.3854217529296875,-0.023681640625
1758447249143220200,7.70922021484375,0.5412445068359375,1.25213623046875,0.0647430419921875
1758447249153192200,7.719192138671875,0.506866455078125,1.1182403564453125,0.1966400146484375
1758447249163164200,7.7291640625,0.3856658935546875,1.0919036865234375,0.37310791015625
1758447249173137200,7.73913720703125,0.2041168212890625,1.172882080078125,0.611419677734375
1758447249183109400,7.749109375,0.067779541015625,1.31646728515625,0.7852325439453125
1758447249193081000,7.7590810546875,0.01690673828125,1.510711669921875,0.9140472412109375
1758447249203053300,7.76905322265625,-0.0072021484375,1.6403961181640625,1.0373077392578125
1758447249213026300,7.7790263671875,-0.0994110107421875,1.531158447265625,0.9662322998046875
1758447249222998000,7.788998046875,-0.1868743896484375,1.1557464599609375,0.772247314453125
1758447249232970200,7.79897021484375,-0.211212158203125,0.8258514404296875,0.6462249755859375
1758447249242942200,7.808942138671875,-0.182403564453125,0.6985931396484375,0.56787109375
1758447249252915200,7.818915283203125,-0.1346435546875,0.574554443359375,0.4674224853515625
1758447249262887200,7.82888720703125,-0.092010498046875,0.470489501953125,0.40203857421875
1758447249272859400,7.838859375,-0.0641326904296875,0.41583251953125,0.3637542724609375
1758447249282832100,7.84883203125,-0.0623321533203125,0.396636962890625,0.3401641845703125
1758447249292804400,7.858804443359375,-0.0463104248046875,0.4301910400390625,0.3553009033203125
1758447249302776300,7.8687763671875,-0.0386962890625,0.49176025390625,0.37322998046875
1758447249312748300,7.878748291015625,-0.0514984130859375,0.5547332763671875,0.376495361328125
1758447249322721300,7.88872119140625,-0.0575408935546875,0.6367950439453125,0.38580322265625
1758447249332693000,7.89869287109375,-0.0743865966796875,0.7289886474609375,0.4104156494140625
1758447249342665200,7.908665283203125,-0.115936279296875,0.8265533447265625,0.4718017578125
1758447249352638200,7.91863818359375,-0.1526947021484375,0.91796875,0.53240966796875
1758447249362610200,7.928610107421875,-0.1522369384765625,0.9867401123046875,0.556793212890625
1758447249372582100,7.93858203125,-0.1569671630859375,1.01806640625,0.5508880615234375
1758447249382554400,7.948554443359375,-0.207244873046875,1.009124755859375,0.5196990966796875
1758447249392527000,7.958527099609375,-0.2208251953125,0.9665374755859375,0.460174560546875
1758447249402499000,7.9684990234375,-0.2189788818359375,0.928070068359375,0.403411865234375
1758447249412471300,7.97847119140625,-0.2130126953125,0.906402587890625,0.34185791015625
1758447249422444000,7.988444091796875,-0.19696044921875,0.8818359375,0.287872314453125
1758447249432416300,7.998416259765625,-0.21746826171875,0.8950347900390625,0.283233642578125
1758447249442388200,8.00838818359375,-0.267730712890625,0.9297332763671875,0.3432464599609375
1758447249452360200,8.018360107421875,-0.2346038818359375,0.9270172119140625,0.3895111083984375
1758447249462333200,8.028333251953125,-0.13482666015625,0.9139404296875,0.3647918701171875
1758447249472305400,8.038305419921874,-0.013031005859375,0.9178466796875,0.3299560546875
1758447249482277000,8.048277099609376,0.1016387939453125,0.9466400146484375,0.3280029296875
1758447249492249300,8.058249267578125,0.1674346923828125,0.974700927734375,0.3046875
1758447249502222300,8.068222412109375,0.1668548583984375,0.99908447265625,0.2787628173828125
1758447249512194000,8.078194091796876,0.139495849609375,1.0279998779296875,0.298065185546875
1758447249522166300,8.088166259765625,0.1059112548828125,1.0262298583984375,0.290618896484375
1758447249532139300,8.09813916015625,0.0868377685546875,0.99420166015625,0.2593231201171875
1758447249542111200,8.108111328125,0.0598907470703125,0.9513702392578125,0.2288360595703125
1758447249552083200,8.118083251953125,0.0276336669921875,0.9102783203125,0.21258544921875
1758447249562055200,8.12805517578125,-0.002105712890625,0.883636474609375,0.228515625
1758447249572028200,8.138028076171874,-0.0186614990234375,0.867156982421875,0.25439453125
1758447249582000000,8.148000244140626,-0.0156097412109375,0.869964599609375,0.2831268310546875
1758447249591972000,8.15797216796875,-0.0158233642578125,0.89453125,0.3165283203125
1758447249601944300,8.1679443359375,-0.019256591796875,0.928314208984375,0.3458099365234375
1758447249611917300,8.177917236328126,-0.0340423583984375,0.9547271728515625,0.359649658203125
1758447249621889000,8.187888916015625,-0.0430450439453125,0.9582366943359375,0.3670806884765625
1758447249631861200,8.197861328125,-0.0412445068359375,0.944244384765625,0.378570556640625
1758447249641834200,8.207834228515624,-0.0415496826171875,0.9312744140625,0.3923797607421875
1758447249651806200,8.21780615234375,-0.0195770263671875,0.926666259765625,0.4193267822265625
1758447249661778200,8.227778076171875,0.0218658447265625,0.926971435546875,0.4363250732421875
1758447249671750100,8.237750244140624,0.05419921875,0.9506988525390625,0.4439239501953125
1758447249681723100,8.24772314453125,0.06500244140625,1.003814697265625,0.4299774169921875
1758447249691695000,8.257695068359375,0.071197509765625,1.06805419921875,0.357818603515625
1758447249701667000,8.2676669921875,0.0721435546875,1.1030426025390625,0.27679443359375
1758447249711640000,8.27764013671875,0.0594635009765625,1.11334228515625,0.216094970703125
1758447249721612300,8.2876123046875,0.0515289306640625,1.1050567626953125,0.1618499755859375
1758447249731584000,8.297583984375,0.05657958984375,1.087005615234375,0.1118621826171875
1758447249741556200,8.30755615234375,0.062164306640625,1.072357177734375,0.0784149169921875
1758447249751529200,8.317529296875,0.0742950439453125,1.079925537109375,0.074554443359375
1758447249761501200,8.327501220703125,0.093292236328125,1.1162261962890625,0.104583740234375
1758447249771473200,8.33747314453125,0.118927001953125,1.215606689453125,0.169189453125
1758447249781445400,8.3474453125,0.1432037353515625,1.3493804931640625,0.2382354736328125
1758447249791418000,8.357418212890625,0.1457061767578125,1.4221954345703125,0.2898406982421875
1758447249801390000,8.36739013671875,0.1321868896484375,1.4115142822265625,0.3369903564453125
1758447249811362300,8.3773623046875,0.1423187255859375,1.3673095703125,0.361114501953125
1758447249821335000,8.3873349609375,0.1760406494140625,1.2828369140625,0.3451385498046875
1758447249831307300,8.397307373046875,0.208221435546875,1.1723480224609375,0.327239990234375
1758447249841279200,8.407279296875,0.2382354736328125,1.0680694580078125,0.3399505615234375
1758447249851251200,8.417251220703125,0.2622833251953125,1.0084228515625,0.391693115234375
1758447249861224200,8.42722412109375,0.2693328857421875,0.9872283935546875,0.476593017578125
1758447249871196200,8.437196044921874,0.26251220703125,0.9742431640625,0.583251953125
1758447249881168100,8.447168212890626,0.2341461181640625,1.002288818359375,0.7015533447265625
1758447249891141000,8.45714111328125,0.171600341796875,1.0561065673828125,0.767608642578125
1758447249901113300,8.46711328125,0.07830810546875,1.094512939453125,0.7572784423828125
1758447249911085000,8.4770849609375,-0.03887939453125,1.1229095458984375,0.757232666015625
1758447249921057300,8.487057373046875,-0.1559600830078125,1.1319732666015625,0.748779296875
1758447249931030300,8.4970302734375,-0.220458984375,1.1141357421875,0.741973876953125
1758447249941002200,8.507002197265624,-0.3375091552734375,1.0599822998046875,0.783599853515625
1758447249950974200,8.51697412109375,-0.480621337890625,0.94830322265625,0.740692138671875
1758447249960946200,8.5269462890625,-0.4626617431640625,0.8452911376953125,0.6542510986328125
1758447249970919200,8.536919189453124,-0.2412567138671875,0.7346954345703125,0.565704345703125
1758447249980891100,8.54689111328125,-0.0448150634765625,0.6571502685546875,0.4185638427734375
1758447249990863000,8.556863037109375,0.2030181884765625,0.7074737548828125,0.36993408203125
1758447250000836000,8.566836181640625,0.481658935546875,0.8260955810546875,0.3206634521484375
1758447250010808300,8.576808349609376,0.5338897705078125,0.9203033447265625,0.2395782470703125
1758447250020780000,8.586780029296875,0.4014892578125,0.9875030517578125,0.1507110595703125
1758447250030752300,8.596752197265625,0.2214813232421875,1.053070068359375,0.0689239501953125
1758447250040725200,8.606725341796874,0.0844268798828125,1.0752410888671875,0.092926025390625
1758447250050697200,8.616697265625,0.0177764892578125,1.0255126953125,0.1935882568359375
1758447250060669200,8.626669189453125,-0.00775146484375,0.938873291015625,0.3022613525390625
1758447250070642200,8.63664208984375,0.048248291015625,0.83831787109375,0.3690185546875
1758447250080614100,8.6466142578125,0.0401763916015625,0.7343597412109375,0.4018707275390625
1758447250090586000,8.656586181640625,-0.02294921875,0.6204986572265625,0.4418792724609375
1758447250100558300,8.666558349609375,-0.1093292236328125,0.528839111328125,0.5008392333984375
1758447250110531000,8.676531005859376,-0.1692047119140625,0.4575653076171875,0.531158447265625
1758447250120503300,8.68650341796875,-0.17645263671875,0.381988525390625,0.5381011962890625
1758447250130475300,8.696475341796875,-0.123931884765625,0.31689453125,0.5219573974609375
1758447250140447200,8.706447265625,-0.05731201171875,0.2617950439453125,0.490875244140625
1758447250150420200,8.716420166015626,0.0102691650390625,0.2313995361328125,0.4717254638671875
1758447250160392200,8.72639208984375,0.0575714111328125,0.2359161376953125,0.475311279296875
1758447250170364200,8.7363642578125,0.083282470703125,0.254364013671875,0.472869873046875
1758447250180337200,8.746337158203126,0.1419830322265625,0.272857666015625,0.4524078369140625
1758447250190309400,8.756309326171875,0.2199554443359375,0.3091583251953125,0.425994873046875
1758447250200281000,8.766281005859375,0.3155364990234375,0.3762969970703125,0.431854248046875
1758447250210253300,8.77625341796875,0.3940277099609375,0.46807861328125,0.4647216796875
1758447250220226300,8.786226318359375,0.4605712890625,0.583587646484375,0.4912872314453125
1758447250230198300,8.7961982421875,0.5486602783203125,0.7364044189453125,0.468536376953125
1758447250240170200,8.806170166015624,0.7288970947265625,0.941741943359375,0.383270263671875
1758447250250142200,8.81614208984375,0.977508544921875,1.2354736328125,0.319976806640625
1758447250260115200,8.826115234375,1.028656005859375,1.5538787841796875,0.271026611328125
1758447250270087200,8.836087158203124,0.8282928466796875,1.628265380859375,0.0885009765625
1758447250280059100,8.84605908203125,0.6759185791015625,1.6266326904296875,-0.0727386474609375
1758447250290032000,8.8560322265625,0.5802154541015625,1.622589111328125,-0.171600341796875
1758447250300004400,8.86600439453125,0.482177734375,1.56195068359375,-0.146484375
1758447250309976000,8.87597607421875,0.463531494140625,1.4174041748046875,-0.0009002685546875
1758447250319948300,8.8859482421875,0.455474853515625,1.3116302490234375,0.24261474609375
1758447250329921300,8.89592138671875,0.32147216796875,1.3793182373046875,0.5903167724609375
1758447250339893000,8.90589306640625,0.1471405029296875,1.529541015625,0.9063568115234375
1758447250349865200,8.915865234375,0.0283050537109375,1.697296142578125,1.1264801025390625
1758447250359838200,8.925838134765625,-0.0674591064453125,1.776275634765625,1.2701263427734375
1758447250369810200,8.93581005859375,-0.0777435302734375,1.5893096923828125,1.2341461181640625
1758447250379782100,8.9457822265625,-0.062042236328125,1.0816802978515625,0.959014892578125
1758447250389754400,8.95575439453125,-0.08837890625,0.697540283203125,0.8360137939453125
1758447250399727000,8.96572705078125,-0.0692138671875,0.575897216796875,0.821929931640625
1758447250409699300,8.97569921875,-0.0566253662109375,0.4512939453125,0.7140045166015625
1758447250419671000,8.985671142578125,-0.0699310302734375,0.3358306884765625,0.5733184814453125
1758447250429643300,8.995643310546875,-0.08184814453125,0.2519073486328125,0.4496917724609375
1758447250439616300,9.0056162109375,-0.0904083251953125,0.21270751953125,0.3688201904296875
1758447250449588000,9.015587890625,-0.0797271728515625,0.1967010498046875,0.31536865234375
1758447250459560200,9.025560302734375,-0.0643463134765625,0.206451416015625,0.2983856201171875
1758447250469533200,9.035533203125,-0.06829833984375,0.28350830078125,0.3252105712890625
1758447250479505200,9.045505126953126,-0.0881195068359375,0.4098358154296875,0.3640289306640625
1758447250489477000,9.05547705078125,-0.12982177734375,0.5558319091796875,0.429595947265625
1758447250499449300,9.065449462890625,-0.1812286376953125,0.71453857421875,0.5243072509765625
1758447250509422000,9.075422119140624,-0.232452392578125,0.8721923828125,0.635772705078125
1758447250519394000,9.08539404296875,-0.2773895263671875,1.0084381103515625,0.7257537841796875
1758447250529366300,9.0953662109375,-0.288116455078125,1.116455078125,0.7798919677734375
1758447250539338000,9.105337890625,-0.2597503662109375,1.135772705078125,0.730316162109375
1758447250549311200,9.115311279296876,-0.231414794921875,1.0575103759765625,0.5909271240234375
1758447250559283200,9.125283203125,-0.1942596435546875,0.97412109375,0.4653778076171875
1758447250569255200,9.135255126953124,-0.1800689697265625,0.943878173828125,0.400390625
1758447250579228200,9.145228271484376,-0.1107177734375,0.9549713134765625,0.363250732421875
1758447250589200400,9.155200439453125,-0.0635986328125,0.952606201171875,0.305084228515625
1758447250599172000,9.165172119140625,-0.0738067626953125,0.8895263671875,0.2593536376953125
1758447250609144300,9.175144287109376,-0.1133880615234375,0.8741455078125,0.23004150390625
1758447250619117300,9.185117431640625,-0.1270294189453125,0.9006195068359375,0.2187347412109375
1758447250629088800,9.1950888671875,-0.060333251953125,0.9415283203125,0.243377685546875
1758447250639060700,9.205060791015624,0.0210418701171875,0.9814453125,0.2967071533203125
1758447250649032700,9.21503271484375,0.11822509765625,0.97808837890625,0.3302764892578125
1758447250659005700,9.225005615234375,0.200286865234375,0.9610748291015625,0.3437042236328125
1758447250668977700,9.234977783203124,0.22723388671875,0.950469970703125,0.343017578125
1758447250678950000,9.244949951171876,0.210357666015625,0.9114227294921875,0.3502197265625
1758447250688922600,9.254922607421875,0.1720123291015625,0.868743896484375,0.3891448974609375
1758447250698894800,9.264894775390625,0.12591552734375,0.8398590087890625,0.4306640625
1758447250708866800,9.27486669921875,0.0896148681640625,0.8203277587890625,0.46221923828125
1758447250718838800,9.2848388671875,0.0485382080078125,0.8317108154296875,0.47406005859375
1758447250728811800,9.294811767578125,0.005615234375,0.85302734375,0.466888427734375
1758447250738783700,9.30478369140625,-0.031036376953125,0.8722686767578125,0.457305908203125
1758447250748755700,9.314755615234375,-0.0535736083984375,0.8921051025390625,0.45703125
1758447250758727700,9.324727783203125,-0.0569305419921875,0.9011077880859375,0.46722412109375
1758447250768700700,9.33470068359375,-0.056121826171875,0.9043426513671875,0.482757568359375
1758447250778672600,9.344672607421876,-0.0432891845703125,0.9033203125,0.4918975830078125
1758447250788644900,9.354644775390625,-0.0179443359375,0.9096527099609375,0.501861572265625
1758447250798617600,9.36461767578125,0.03594970703125,0.9157257080078125,0.5078887939453125
1758447250808589800,9.37458984375,0.0897064208984375,0.9339141845703125,0.500823974609375
1758447250818561800,9.384561767578125,0.131072998046875,0.9737548828125,0.478973388671875
1758447250828533800,9.39453369140625,0.16552734375,1.0065460205078125,0.4388580322265625
1758447250838506800,9.4045068359375,0.1779937744140625,1.026092529296875,0.353179931640625
1758447250848478700,9.414478759765625,0.1698150634765625,1.046173095703125,0.2790069580078125
1758447250858450700,9.42445068359375,0.162384033203125,1.0545501708984375,0.226470947265625
1758447250868423700,9.434423583984374,0.1546783447265625,1.0737762451171875,0.1916046142578125
1758447250878396000,9.44439599609375,0.138519287109375,1.135528564453125,0.1762847900390625
1758447250888367600,9.45436767578125,0.1212921142578125,1.25787353515625,0.1808013916015625
1758447250898339800,9.46433984375,0.1112213134765625,1.403564453125,0.205078125
1758447250908312800,9.474312744140626,0.0865325927734375,1.5174102783203125,0.2314605712890625
1758447250918284500,9.484284423828125,0.0448150634765625,1.554962158203125,0.2642059326171875
1758447250928256800,9.4942568359375,0.0060272216796875,1.4894866943359375,0.2833709716796875
1758447250938228500,9.504228515625,-0.02105712890625,1.355712890625,0.3265228271484375
1758447250948201700,9.51420166015625,-0.0341644287109375,1.2541351318359375,0.3897705078125
1758447250958173700,9.524173583984375,-0.032806396484375,1.1820068359375,0.51007080078125
1758447250968145700,9.534145751953124,0.01239013671875,1.1060028076171875,0.642730712890625
1758447250978118700,9.54411865234375,0.0912933349609375,0.999114990234375,0.724456787109375
1758447250988091000,9.5540908203125,0.17681884765625,0.8933868408203125,0.7677459716796875
1758447250998062600,9.5640625,0.232757568359375,0.8390655517578125,0.81634521484375
1758447251008034800,9.574034912109376,0.207427978515625,0.8113250732421875,0.942291259765625
1758447251018007800,9.5840078125,0.050506591796875,0.874420166015625,1.073638916015625
1758447251027979500,9.5939794921875,-0.102813720703125,0.8904266357421875,1.0830078125
1758447251037951700,9.60395166015625,-0.2033538818359375,0.8518218994140625,1.0466766357421875
1758447251047923700,9.613923828125,-0.2257537841796875,0.7857818603515625,0.98724365234375
1758447251057896700,9.623896728515625,-0.1284332275390625,0.7183380126953125,0.93499755859375
1758447251067868700,9.63386865234375,-0.0823516845703125,0.6607513427734375,0.9107513427734375
1758447251077841000,9.6438408203125,-0.017730712890625,0.6497650146484375,0.881011962890625
1758447251087813600,9.653813720703125,0.1501007080078125,0.67303466796875,0.8363189697265625
1758447251097785600,9.66378564453125,0.2218170166015625,0.6878509521484375,0.7451324462890625
1758447251107757800,9.6737578125,0.2493896484375,0.7011566162109375,0.5418548583984375
1758447251117729500,9.6837294921875,0.273590087890625,0.7635955810546875,0.3183135986328125
1758447251127702800,9.693702880859375,0.1773834228515625,0.9073486328125,0.1451568603515625
1758447251137674800,9.7036748046875,0.0392608642578125,1.0735321044921875,0.0608673095703125
1758447251147646700,9.713646728515625,-0.0437774658203125,1.1878662109375,0.1115570068359375
1758447251157618700,9.72361865234375,-0.001312255859375,1.194305419921875,0.2222747802734375
1758447251167592000,9.733592041015624,0.05029296875,1.0744476318359375,0.3242034912109375
1758447251177563600,9.743563720703126,0.1050262451171875,0.9072723388671875,0.4284820556640625
1758447251187536000,9.753535888671875,0.1620941162109375,0.7574920654296875,0.4830169677734375
1758447251197508900,9.7635087890625,0.1454620361328125,0.655975341796875,0.5363311767578125
1758447251207480600,9.77348046875,0.0100860595703125,0.5769195556640625,0.581390380859375
1758447251217452800,9.783452880859375,-0.108154296875,0.474853515625,0.564727783203125
1758447251227424500,9.793424560546875,-0.153961181640625,0.3710784912109375,0.55426025390625
1758447251237397800,9.803397705078124,-0.1597747802734375,0.288848876953125,0.5631103515625
1758447251247369700,9.81336962890625,-0.1243896484375,0.220916748046875,0.543975830078125
1758447251257341700,9.823341796875,-0.064208984375,0.1730499267578125,0.5148468017578125
1758447251267313700,9.833313720703124,-0.0080413818359375,0.1561431884765625,0.495819091796875
1758447251277286700,9.84328662109375,0.02484130859375,0.1640777587890625,0.4713592529296875
1758447251287258600,9.853258544921875,0.0482940673828125,0.1746826171875,0.45330810546875
1758447251297230800,9.86323095703125,0.084747314453125,0.187286376953125,0.432098388671875
1758447251307203800,9.873203857421874,0.1349029541015625,0.2185516357421875,0.418243408203125
1758447251317175600,9.883175537109375,0.2367095947265625,0.273590087890625,0.432952880859375
1758447251327147800,9.893147705078125,0.3577423095703125,0.3660736083984375,0.47955322265625
1758447251337119700,9.90311962890625,0.46429443359375,0.4809417724609375,0.5298004150390625
1758447251347092700,9.9130927734375,0.5554962158203125,0.6205596923828125,0.5530242919921875
1758447251357064700,9.923064697265625,0.6638336181640625,0.8432769775390625,0.5487213134765625
1758447251367037000,9.933036865234374,0.9555206298828125,1.1936187744140625,0.507537841796875
1758447251377008600,9.943008544921875,1.4073944091796875,1.7175445556640625,0.505584716796875
1758447251386981600,9.952981689453125,1.48919677734375,2.118743896484375,0.4474639892578125
1758447251396953900,9.962953857421875,1.19720458984375,2.0682220458984375,0.2398681640625
1758447251406925600,9.972925537109376,0.902740478515625,1.8077850341796875,0.0783538818359375
1758447251416898800,9.98289892578125,0.62481689453125,1.4949798583984375,-0.034332275390625
1758447251426870800,9.992870849609375,0.3943634033203125,1.23291015625,0.03375244140625
1758447251436842800,10.0028427734375,0.2252655029296875,1.1475982666015625,0.2977752685546875
1758447251446814700,10.012814697265625,0.0343475341796875,1.207427978515625,0.5718536376953125
1758447251456787700,10.02278759765625,-0.114532470703125,1.335662841796875,0.7867431640625
1758447251466759700,10.032759765625,-0.2005615234375,1.447357177734375,1.0035858154296875
1758447251476732000,10.04273193359375,-0.340850830078125,1.47015380859375,1.2123565673828125
1758447251486703600,10.05270361328125,-0.3923492431640625,1.3770294189453125,1.310028076171875
1758447251496676600,10.062676513671875,-0.303131103515625,1.1467742919921875,1.3435211181640625
1758447251506648800,10.07264892578125,-0.140380859375,0.7751922607421875,1.1494293212890625
1758447251516620500,10.08262060546875,-0.0256805419921875,0.5339508056640625,0.938812255859375
1758447251526593800,10.09259375,0.0432891845703125,0.33734130859375,0.7785491943359375
1758447251536565800,10.102565673828124,0.0003204345703125,0.2156982421875,0.6473541259765625
1758447251546537700,10.112537841796875,-0.09490966796875,0.1658782958984375,0.5448760986328125
1758447251556509700,10.122509765625,-0.1188812255859375,0.12890625,0.438690185546875
1758447251566482700,10.132482666015624,-0.0855255126953125,0.1006622314453125,0.3736114501953125
1758447251576454700,10.14245458984375,-0.044525146484375,0.1237030029296875,0.3446044921875
1758447251586426600,10.152426513671875,-0.0383148193359375,0.18157958984375,0.3358001708984375
1758447251596398800,10.16239892578125,-0.060699462890625,0.2928314208984375,0.3633270263671875
1758447251606371600,10.17237158203125,-0.089691162109375,0.443603515625,0.446502685546875
1758447251616343800,10.18234375,-0.1360626220703125,0.613616943359375,0.5597686767578125
1758447251626315800,10.192315673828125,-0.1785888671875,0.8090362548828125,0.721954345703125
1758447251636288800,10.202288818359374,-0.1799468994140625,0.9882965087890625,0.85821533203125
1758447251646261000,10.212260986328126,-0.1440582275390625,1.115753173828125,0.951416015625
1758447251656233000,10.22223291015625,-0.1077117919921875,1.1713409423828125,0.9791717529296875
1758447251666205000,10.232204833984374,-0.0815887451171875,1.10455322265625,0.8726348876953125
1758447251676178000,10.242177978515626,-0.0643310546875,0.9588165283203125,0.6942901611328125
1758447251686150000,10.25214990234375,-0.063690185546875,0.858154296875,0.5632476806640625
1758447251696121900,10.262121826171875,-0.02496337890625,0.8093414306640625,0.443267822265625
1758447251706094000,10.272093994140626,-0.025543212890625,0.7724456787109375,0.3256988525390625
1758447251716066800,10.28206689453125,-0.065399169921875,0.7596588134765625,0.265533447265625
1758447251726039000,10.2920390625,-0.112640380859375,0.7870941162109375,0.264678955078125
1758447251736011000,10.302010986328124,-0.126251220703125,0.8594207763671875,0.3024749755859375
1758447251745983700,10.311983642578125,-0.129730224609375,0.95318603515625,0.341094970703125
1758447251755956000,10.3219560546875,-0.13531494140625,1.07275390625,0.303070068359375
1758447251765928000,10.331927978515624,-0.1392059326171875,1.1436920166015625,0.2212677001953125
1758447251775900000,10.34189990234375,-0.1013031005859375,1.1178436279296875,0.171478271484375
1758447251785873000,10.351872802734375,-0.025970458984375,1.0647125244140625,0.16619873046875
1758447251795845000,10.36184521484375,0.0381622314453125,0.9912261962890625,0.15692138671875
1758447251805816800,10.37181689453125,0.0922088623046875,0.9240570068359375,0.1515350341796875
1758447251815789000,10.3817890625,0.13690185546875,0.896820068359375,0.19927978515625
1758447251825762000,10.391761962890625,0.167877197265625,0.8912811279296875,0.282806396484375
1758447251835734000,10.401734130859374,0.1846466064453125,0.9102325439453125,0.3824005126953125
1758447251845706000,10.4117060546875,0.19952392578125,0.936187744140625,0.466156005859375
1758447251855678000,10.421677978515625,0.188568115234375,0.9666290283203125,0.521087646484375
1758447251865651000,10.43165087890625,0.161590576171875,0.9678955078125,0.5283355712890625
1758447251875623000,10.441622802734376,0.144073486328125,0.945953369140625,0.50408935546875
1758447251885595000,10.451594970703125,0.13983154296875,0.9176177978515625,0.4779205322265625
1758447251895568000,10.46156787109375,0.146453857421875,0.9022216796875,0.4691314697265625
1758447251905540000,10.4715400390625,0.1544647216796875,0.916015625,0.477447509765625
1758447251915511800,10.48151171875,0.1600189208984375,0.9527130126953125,0.4863433837890625
1758447251925484000,10.491484130859375,0.157196044921875,1.004180908203125,0.478973388671875
1758447251935457000,10.50145703125,0.1441192626953125,1.052459716796875,0.437957763671875
1758447251945428700,10.5114287109375,0.118133544921875,1.07989501953125,0.3602294921875
1758447251955401000,10.52140087890625,0.096771240234375,1.10382080078125,0.30224609375
1758447251965373000,10.531373046875,0.1004638671875,1.115692138671875,0.2650604248046875
1758447251975346000,10.541345947265626,0.111968994140625,1.1203155517578125,0.2276611328125
1758447251985318000,10.55131787109375,0.105438232421875,1.152191162109375,0.2024078369140625
1758447251995290000,10.5612900390625,0.087615966796875,1.229339599609375,0.19952392578125
1758447252005262800,10.571262939453124,0.066162109375,1.33502197265625,0.2293853759765625
1758447252015235000,10.581235107421875,0.048858642578125,1.4033660888671875,0.26983642578125
1758447252025207000,10.59120703125,0.0490875244140625,1.380889892578125,0.3171539306640625
1758447252035179000,10.601178955078124,0.06048583984375,1.2944183349609375,0.357269287109375
1758447252045152000,10.611152099609376,0.0810394287109375,1.1908721923828125,0.3643798828125
1758447252055124000,10.6211240234375,0.0875396728515625,1.096832275390625,0.38446044921875
1758447252065096000,10.631095947265624,0.095458984375,1.0489654541015625,0.4826812744140625
1758447252075068000,10.64106787109375,0.122528076171875,1.0400543212890625,0.607757568359375
1758447252085041000,10.651041015625,0.17730712890625,1.0577850341796875,0.7464599609375
1758447252095012900,10.661012939453125,0.2197113037109375,1.074310302734375,0.8839569091796875
1758447252104985000,10.670985107421876,0.218841552734375,1.067962646484375,0.9613189697265625
1758447252114957800,10.680957763671875,0.1561431884765625,1.0397796630859375,0.97503662109375
1758447252124929800,10.6909296875,0.035858154296875,1.0266571044921875,0.9858245849609375
1758447252134902000,10.700902099609374,-0.093017578125,1.0243377685546875,1.016815185546875
1758447252144874000,10.7108740234375,-0.21307373046875,0.9847564697265625,1.017974853515625
1758447252154847000,10.720846923828125,-0.3171844482421875,0.90631103515625,0.97369384765625
1758447252164819000,10.73081884765625,-0.3423614501953125,0.8266448974609375,0.95794677734375
1758447252174791000,10.740791015625,-0.25592041015625,0.721893310546875,0.9525909423828125
1758447252184763000,10.750762939453125,-0.0705413818359375,0.61773681640625,0.91900634765625
1758447252194736000,10.760736083984375,0.18267822265625,0.5559844970703125,0.7867889404296875
1758447252204707800,10.770707763671876,0.3615875244140625,0.6086578369140625,0.6546173095703125
1758447252214680000,10.78068017578125,0.36834716796875,0.685882568359375,0.4949188232421875
1758447252224651800,10.79065185546875,0.2899017333984375,0.758087158203125,0.3477325439453125
1758447252234624800,10.800624755859374,0.2476348876953125,0.80645751953125,0.2449493408203125
1758447252244597000,10.810596923828125,0.1490936279296875,0.8922271728515625,0.1188812255859375
1758447252254568700,10.820568603515625,0.0512237548828125,1.03338623046875,0.0929412841796875
1758447252264542000,10.8305419921875,0.052825927734375,1.124786376953125,0.2113037109375
1758447252274514000,10.840513916015626,0.04266357421875,1.0821075439453125,0.34320068359375
1758447252284486000,10.85048583984375,0.043701171875,0.925567626953125,0.4033050537109375
1758447252294457900,10.860457763671874,0.04486083984375,0.760406494140625,0.417877197265625
1758447252304430800,10.870430908203126,0.001068115234375,0.6227569580078125,0.4650115966796875
1758447252314402800,10.88040283203125,-0.072113037109375,0.5110321044921875,0.52294921875
1758447252324375000,10.890375,-0.146392822265625,0.3944244384765625,0.53204345703125
1758447252334347000,10.900346923828126,-0.218536376953125,0.2584381103515625,0.5171051025390625
1758447252344319700,10.91031982421875,-0.2504425048828125,0.133087158203125,0.4957733154296875
1758447252354292000,10.9202919921875,-0.23101806640625,0.057037353515625,0.501953125
1758447252364264000,10.930263916015624,-0.1534576416015625,0.0329132080078125,0.5380096435546875
1758447252374237000,10.94023681640625,-0.0722503662109375,0.045745849609375,0.5508270263671875
1758447252384209000,10.950208984375,-0.0271759033203125,0.079254150390625,0.5509185791015625
1758447252394181000,10.96018115234375,0.0129241943359375,0.11517333984375,0.5382080078125
1758447252404152800,10.97015283203125,0.0807647705078125,0.143402099609375,0.50994873046875
1758447252414125800,10.980125732421875,0.175537109375,0.198944091796875,0.5212860107421875
1758447252424098000,10.99009814453125,0.2666473388671875,0.279937744140625,0.5269927978515625
1758447252434069800,11.00006982421875,0.3721923828125,0.3959808349609375,0.5263824462890625
1758447252444042000,11.0100419921875,0.449951171875,0.56805419921875,0.5586395263671875
1758447252454015000,11.020014892578125,0.560333251953125,0.8329925537109375,0.6327972412109375
1758447252463987000,11.029987060546874,1.2240447998046875,1.3697967529296875,0.68865966796875
1758447252473959000,11.039958984375,2.05859375,2.2715301513671875,0.6488494873046875
1758447252483931000,11.049930908203125,1.594024658203125,2.5175628662109375,0.4722137451171875
1758447252493904000,11.05990380859375,1.0671234130859375,2.182220458984375,0.189910888671875
1758447252503876000,11.0698759765625,0.7902984619140625,1.8298187255859375,-0.0376434326171875
1758447252513847800,11.079847900390625,0.521697998046875,1.4035491943359375,-0.208526611328125
1758447252523820800,11.08982080078125,0.32586669921875,1.061859130859375,-0.2254791259765625
1758447252533793000,11.09979296875,0.1366119384765625,0.9386749267578125,-0.05108642578125
1758447252543764700,11.1097646484375,-0.049560546875,1.00994873046875,0.2557373046875
1758447252553737000,11.119737060546875,-0.1720733642578125,1.22265625,0.631378173828125
1758447252563710000,11.1297099609375,-0.2328338623046875,1.408294677734375,0.9515533447265625
1758447252573682000,11.139681884765626,-0.3594970703125,1.4835052490234375,1.1827545166015625
1758447252583654000,11.14965380859375,-0.4047393798828125,1.489715576171875,1.3820953369140625
1758447252593626000,11.159626220703124,-0.2305755615234375,1.362060546875,1.5045623779296875
1758447252603598800,11.169598876953126,0.0001983642578125,0.9616546630859375,1.3270721435546875
1758447252613570800,11.17957080078125,0.1324920654296875,0.5931854248046875,1.09039306640625
1758447252623543000,11.18954296875,0.1787872314453125,0.3893585205078125,0.927001953125
1758447252633515300,11.199515380859374,0.0313262939453125,0.2875518798828125,0.7409210205078125
1758447252643487500,11.209487548828125,-0.1016845703125,0.2286834716796875,0.5662078857421875
1758447252653459500,11.21945947265625,-0.1278533935546875,0.1809234619140625,0.41937255859375
1758447252663431400,11.229431396484374,-0.124542236328125,0.16815185546875,0.323486328125
1758447252673404400,11.239404296875,-0.1461639404296875,0.197296142578125,0.2684326171875
1758447252683376600,11.249376708984375,-0.1405487060546875,0.2398529052734375,0.2502899169921875
1758447252693348400,11.259348388671874,-0.1011810302734375,0.2941436767578125,0.2624664306640625
1758447252703320600,11.269320556640626,-0.0801544189453125,0.4074554443359375,0.32666015625
1758447252713293600,11.27929345703125,-0.0763092041015625,0.61468505859375,0.480010986328125
1758447252723265500,11.289265625,-0.077239990234375,0.828155517578125,0.6161956787109375
1758447252733237500,11.299237548828126,-0.0701904296875,1.0184478759765625,0.7319488525390625
1758447252743210500,11.30921044921875,-0.054718017578125,1.1796722412109375,0.8430633544921875
1758447252753182500,11.319182373046875,-0.0653839111328125,1.250701904296875,0.8870086669921875
1758447252763154400,11.329154541015624,-0.0969390869140625,1.1593017578125,0.803863525390625
1758447252773126400,11.33912646484375,-0.162078857421875,0.99169921875,0.6716461181640625
1758447252783099400,11.349099365234375,-0.2135009765625,0.8461151123046875,0.57086181640625
1758447252793071600,11.359071533203124,-0.2525634765625,0.7230224609375,0.488311767578125
1758447252803043300,11.369043212890626,-0.2366180419921875,0.6431732177734375,0.37908935546875
1758447252813015600,11.379015625,-0.2342529296875,0.6305389404296875,0.304168701171875
1758447252822988500,11.388988525390625,-0.23663330078125,0.6771697998046875,0.2563629150390625
1758447252832960300,11.398960205078126,-0.233734130859375,0.7530059814453125,0.25537109375
1758447252842932500,11.408932373046875,-0.195953369140625,0.8503265380859375,0.294769287109375
1758447252852905500,11.418905517578125,-0.12939453125,0.9735870361328125,0.340850830078125
1758447252862877400,11.42887744140625,-0.077728271484375,1.0811004638671875,0.3672943115234375
1758447252872849400,11.438849365234375,-0.0526580810546875,1.1368255615234375,0.3560333251953125
1758447252882821600,11.448821533203125,-0.0091400146484375,1.1275787353515625,0.2996368408203125
1758447252892794400,11.45879443359375,0.045654296875,1.0708465576171875,0.236114501953125
1758447252902766600,11.4687666015625,0.0994873046875,1.00408935546875,0.1947784423828125
1758447252912738600,11.478738525390625,0.1543426513671875,0.94720458984375,0.184783935546875
1758447252922710500,11.48871044921875,0.2074432373046875,0.917236328125,0.2126617431640625
1758447252932683500,11.49868359375,0.2225494384765625,0.918121337890625,0.277191162109375
1758447252942655500,11.508655517578125,0.2100372314453125,0.94091796875,0.3665313720703125
1758447252952627500,11.51862744140625,0.1926727294921875,0.9685516357421875,0.449310302734375
1758447252962600400,11.528600341796874,0.1743927001953125,0.9829864501953125,0.5084991455078125
1758447252972572700,11.53857275390625,0.1631011962890625,0.97894287109375,0.5442962646484375
1758447252982544400,11.54854443359375,0.1706695556640625,0.958984375,0.5646514892578125
1758447252992516600,11.5585166015625,0.177459716796875,0.9271697998046875,0.5841522216796875
1758447253002489600,11.568489501953126,0.1744537353515625,0.9273681640625,0.60833740234375
1758447253012461300,11.57846142578125,0.1570281982421875,0.9740447998046875,0.60986328125
1758447253022433500,11.58843359375,0.132904052734375,1.02423095703125,0.552032470703125
1758447253032406500,11.598406494140624,0.105621337890625,1.0484161376953125,0.4532623291015625
1758447253042378500,11.60837841796875,0.089324951171875,1.05694580078125,0.3545074462890625
1758447253052350500,11.6183505859375,0.0875244140625,1.0725860595703125,0.2708740234375
1758447253062322400,11.628322509765624,0.0814208984375,1.1233978271484375,0.2100830078125
1758447253072295400,11.63829541015625,0.081390380859375,1.2177886962890625,0.171112060546875
1758447253082267600,11.648267578125,0.0696258544921875,1.33917236328125,0.1594390869140625
1758447253092239400,11.6582392578125,0.048065185546875,1.4327850341796875,0.1560211181640625
1758447253102212400,11.66821240234375,0.0155181884765625,1.4352874755859375,0.155975341796875
1758447253112184600,11.6781845703125,-0.0052490234375,1.3474578857421875,0.1635284423828125
1758447253122156300,11.68815625,-0.0162506103515625,1.2333984375,0.18756103515625
1758447253132129500,11.698129638671874,0.0030059814453125,1.1567230224609375,0.2367095947265625
1758447253142101500,11.7081015625,0.0326995849609375,1.107666015625,0.3296661376953125
1758447253152073500,11.718073486328125,0.0493927001953125,1.0794830322265625,0.475494384765625
1758447253162045400,11.72804541015625,0.1180877685546875,1.05487060546875,0.624237060546875
1758447253172018400,11.738018310546876,0.232147216796875,1.038726806640625,0.7682342529296875
1758447253181990400,11.747990478515625,0.3151397705078125,1.0107421875,0.9097747802734375
1758447253191962400,11.75796240234375,0.2935943603515625,0.992584228515625,0.9965667724609375
1758447253201935600,11.767935546875,0.1689300537109375,1.0105133056640625,0.9980316162109375
1758447253211907300,11.7779072265625,0.0028839111328125,1.0328826904296875,0.9952239990234375
1758447253221879600,11.787879638671875,-0.158966064453125,1.03851318359375,0.9959716796875
1758447253231851500,11.7978515625,-0.289947509765625,0.9980621337890625,0.9820709228515625
1758447253241824500,11.807824462890625,-0.3585662841796875,0.935272216796875,0.9710845947265625
1758447253251796500,11.81779638671875,-0.3672332763671875,0.846160888671875,0.966064453125
1758447253261768700,11.827768798828124,-0.3139495849609375,0.7178802490234375,0.9276885986328125
1758447253271741400,11.837741455078126,-0.2106475830078125,0.6225433349609375,0.89764404296875
1758447253281713400,11.84771337890625,0.0157012939453125,0.568634033203125,0.8049774169921875
1758447253291685600,11.857685546875,0.3475189208984375,0.567108154296875,0.6306610107421875
1758447253301658400,11.867658447265624,0.480072021484375,0.59735107421875,0.4751129150390625
1758447253311630600,11.877630615234375,0.452880859375,0.7120513916015625,0.349609375
1758447253321602600,11.8876025390625,0.29034423828125,0.8521575927734375,0.17901611328125
1758447253331574500,11.897574462890624,0.119049072265625,0.960418701171875,0.143829345703125
1758447253341547500,11.907547607421876,-0.0306396484375,1.1157379150390625,0.1656646728515625
1758447253351519500,11.91751953125,-0.0245819091796875,1.1580352783203125,0.2485809326171875
1758447253361491500,11.927491455078124,0.043853759765625,1.00494384765625,0.3455047607421875
1758447253371464400,11.93746435546875,0.0917510986328125,0.86785888671875,0.41375732421875
1758447253381436700,11.947436767578125,0.0086212158203125,0.7720489501953125,0.4557647705078125
1758447253391408400,11.957408447265625,-0.166839599609375,0.658477783203125,0.4708709716796875
1758447253401380600,11.967380615234376,-0.257537841796875,0.536163330078125,0.4990692138671875
1758447253411353300,11.977353271484375,-0.2704925537109375,0.4190673828125,0.5402069091796875
1758447253421325600,11.98732568359375,-0.2427825927734375,0.3134613037109375,0.548370361328125
1758447253431297500,11.997297607421874,-0.186065673828125,0.2237701416015625,0.539398193359375
1758447253441270300,12.007270263671876,-0.1102752685546875,0.148712158203125,0.538360595703125
1758447253451242500,12.017242431640625,-0.032318115234375,0.0917816162109375,0.517791748046875
1758447253461214500,12.02721435546875,0.02947998046875,0.0833892822265625,0.4991912841796875
1758447253471187500,12.0371875,0.0725555419921875,0.1193084716796875,0.4928741455078125
1758447253481159400,12.047159423828125,0.13262939453125,0.1619110107421875,0.4690093994140625
1758447253491131600,12.057131591796875,0.2107086181640625,0.217529296875,0.4485015869140625
1758447253501103400,12.067103271484376,0.27886962890625,0.3080596923828125,0.450714111328125
1758447253511076400,12.077076416015625,0.330291748046875,0.4293060302734375,0.4912872314453125
1758447253521048600,12.087048583984375,0.40911865234375,0.5595855712890625,0.51727294921875
1758447253531020300,12.097020263671874,0.5644378662109375,0.72705078125,0.4853515625
1758447253540993500,12.10699365234375,0.9920196533203125,1.003265380859375,0.4157257080078125
1758447253550965500,12.116965576171875,1.3079986572265625,1.30328369140625,0.30987548828125
1758447253560937500,12.1269375,1.1197509765625,1.59979248046875,0.363494873046875
1758447253570909400,12.136909423828126,1.0089263916015625,1.9788055419921875,0.4869842529296875
1758447253580882400,12.14688232421875,0.9115447998046875,2.035980224609375,0.3823089599609375
1758447253590854400,12.1568544921875,0.7360076904296875,1.752838134765625,0.187713623046875
1758447253600826600,12.16682666015625,0.5761871337890625,1.453857421875,0.155059814453125
1758447253610799600,12.176799560546876,0.3612518310546875,1.3377838134765625,0.4247894287109375
1758447253620771300,12.186771240234375,0.0484619140625,1.3881378173828125,0.799468994140625
1758447253630743300,12.196743408203124,-0.1808013916015625,1.4822235107421875,1.047515869140625
1758447253640716300,12.20671630859375,-0.2795257568359375,1.45953369140625,1.14141845703125
1758447253650688500,12.2166884765625,-0.2543182373046875,1.33026123046875,1.1451416015625
1758447253660660200,12.22666015625,-0.224822998046875,1.0916900634765625,1.1183013916015625
1758447253670632400,12.236632568359376,-0.217529296875,0.8072662353515625,1.1374053955078125
1758447253680605400,12.24660546875,-0.14398193359375,0.6237030029296875,1.07525634765625
1758447253690577200,12.2565771484375,-0.024566650390625,0.4522857666015625,0.8738555908203125
1758447253700549400,12.26654931640625,0.0350341796875,0.3204498291015625,0.758026123046875
1758447253710522400,12.2765224609375,-0.0036773681640625,0.2640838623046875,0.6614837646484375
1758447253720494300,12.286494384765625,-0.080291748046875,0.2556915283203125,0.5589599609375
1758447253730466300,12.29646630859375,-0.122406005859375,0.2547149658203125,0.4674835205078125
1758447253740438500,12.3064384765625,-0.1417694091796875,0.279571533203125,0.4134979248046875
1758447253750411300,12.316411376953125,-0.1517181396484375,0.31298828125,0.381805419921875
1758447253760383500,12.326383544921875,-0.1344451904296875,0.35223388671875,0.3603973388671875
1758447253770355200,12.336355224609376,-0.1147918701171875,0.418060302734375,0.3709564208984375
1758447253780328200,12.346328125,-0.1406097412109375,0.54315185546875,0.4524078369140625
1758447253790300400,12.356300537109375,-0.16552734375,0.7274169921875,0.5980987548828125
1758447253800272100,12.366272216796874,-0.1683197021484375,0.9054412841796875,0.7181549072265625
1758447253810244400,12.376244384765625,-0.1933135986328125,1.06610107421875,0.821563720703125
1758447253820217300,12.38621728515625,-0.204864501953125,1.1612548828125,0.87188720703125
1758447253830189300,12.396189208984374,-0.256622314453125,1.1349639892578125,0.8228759765625
1758447253840161300,12.406161376953126,-0.274444580078125,1.0052947998046875,0.690460205078125
1758447253850134300,12.41613427734375,-0.2599334716796875,0.8613128662109375,0.5608673095703125
1758447253860106200,12.426106201171875,-0.27264404296875,0.77001953125,0.4803924560546875
1758447253870078200,12.436078125,-0.220062255859375,0.7166595458984375,0.4142303466796875
1758447253880051500,12.446051513671875,-0.1687164306640625,0.7146759033203125,0.3824005126953125
1758447253890023200,12.456023193359375,-0.1458892822265625,0.750579833984375,0.3580780029296875
1758447253899995400,12.465995361328124,-0.119354248046875,0.8301239013671875,0.3576507568359375
1758447253909967400,12.47596728515625,-0.080322265625,0.9566497802734375,0.33734130859375
1758447253919940400,12.4859404296875,-0.07568359375,1.068511962890625,0.273223876953125
1758447253929912300,12.495912353515624,-0.093170166015625,1.1412811279296875,0.19390869140625
1758447253939884500,12.505884521484376,-0.07025146484375,1.167205810546875,0.150848388671875
1758447253949856300,12.515856201171875,-0.011322021484375,1.14691162109375,0.147125244140625
1758447253959829200,12.525829345703125,0.0785675048828125,1.09478759765625,0.1483917236328125
1758447253969801500,12.535801513671874,0.181976318359375,1.030609130859375,0.1501007080078125
1758447253979773200,12.545773193359375,0.2527008056640625,0.9560699462890625,0.1660614013671875
1758447253989746400,12.555746337890625,0.273651123046875,0.8993072509765625,0.22174072265625
1758447253999718400,12.565718505859374,0.2711029052734375,0.863677978515625,0.309478759765625
1758447254009690400,12.5756904296875,0.2440185546875,0.8615875244140625,0.412445068359375
1758447254019662300,12.585662353515625,0.188201904296875,0.889373779296875,0.48858642578125
1758447254029635300,12.59563525390625,0.1187896728515625,0.9166107177734375,0.51556396484375
1758447254039607300,12.605607177734376,0.0626678466796875,0.9306182861328125,0.5196533203125
1758447254049579300,12.615579345703125,0.0386962890625,0.930877685546875,0.531524658203125
1758447254059552500,12.625552490234375,0.034576416015625,0.920135498046875,0.5482635498046875
1758447254069524200,12.635524169921876,0.03515625,0.8950653076171875,0.5649871826171875
1758447254079496400,12.645496337890625,0.0487823486328125,0.8990478515625,0.59588623046875
1758447254089468200,12.65546826171875,0.0645904541015625,0.9196319580078125,0.619781494140625
1758447254099441400,12.66544140625,0.084503173828125,0.952239990234375,0.6149749755859375
1758447254109413400,12.675413330078126,0.1030120849609375,1.0089111328125,0.5639801025390625
1758447254119385300,12.68538525390625,0.1178436279296875,1.0478363037109375,0.4655609130859375
1758447254129358300,12.6953583984375,0.1165924072265625,1.0724945068359375,0.376708984375
1758447254139330300,12.705330322265626,0.1151275634765625,1.0894317626953125,0.30169677734375
1758447254149302300,12.71530224609375,0.1165924072265625,1.124969482421875,0.2412872314453125
1758447254159274200,12.725274169921875,0.1165008544921875,1.20941162109375,0.2037811279296875
1758447254169247500,12.73524755859375,0.101409912109375,1.324310302734375,0.182586669921875
1758447254179219200,12.74521923828125,0.06048583984375,1.417388916015625,0.1765289306640625
1758447254189191400,12.75519140625,0.0229339599609375,1.43145751953125,0.20318603515625
1758447254199164400,12.765164306640624,-0.031097412109375,1.3381500244140625,0.2489013671875
1758447254209136000,12.77513623046875,-0.060150146484375,1.19488525390625,0.2911529541015625
1758447254219108400,12.7851083984375,-0.0455322265625,1.0801544189453125,0.3377227783203125
1758447254229080300,12.795080322265624,-0.0565948486328125,1.0209808349609375,0.41351318359375
1758447254239053300,12.80505322265625,-0.06463623046875,1.0001068115234375,0.5479278564453125
1758447254249025300,12.815025390625,-0.024932861328125,0.969207763671875,0.69183349609375
1758447254258997500,12.82499755859375,0.0665130615234375,0.935882568359375,0.81195068359375
1758447254268970200,12.83497021484375,0.1861114501953125,0.9098968505859375,0.891326904296875
1758447254278942500,12.8449423828125,0.256561279296875,0.9089813232421875,0.9398040771484375
1758447254288914400,12.85491455078125,0.2279510498046875,0.9071197509765625,0.9757843017578125
1758447254298886400,12.864886474609374,0.1304779052734375,0.89459228515625,0.95501708984375
1758447254308859400,12.874859375,0.0206451416015625,0.9019622802734375,0.95538330078125
1758447254318831400,12.884831298828125,-0.079681396484375,0.8994598388671875,0.95953369140625
1758447254328803300,12.89480322265625,-0.1794891357421875,0.883514404296875,0.944366455078125
1758447254338776300,12.9047763671875,-0.2022705078125,0.8491058349609375,0.94488525390625
1758447254348748500,12.91474853515625,-0.199798583984375,0.7822113037109375,0.9608306884765625
1758447254358720300,12.92472021484375,-0.1648712158203125,0.7130126953125,0.911956787109375
1758447254368692500,12.9346923828125,-0.0315399169921875,0.6627960205078125,0.7905731201171875
1758447254378665500,12.94466552734375,0.109375,0.6726531982421875,0.68792724609375
1758447254388637200,12.95463720703125,0.123779296875,0.710723876953125,0.552978515625
1758447254398609400,12.964609375,0.1148681640625,0.7899017333984375,0.238525390625
1758447254408582400,12.97458251953125,0.081939697265625,0.9351654052734375,0.0656890869140625
