time,seconds_elapsed,z,y,x
1758440520478898700,0.016898681640625,-0.08863718807697296,-0.005189169198274612,-0.120706707239151
1758440520488869600,0.02686962890625,-0.08781027793884277,-0.026671292260289192,-0.08339662104845047
1758440520498839600,0.036839599609375,-0.07698293030261993,-0.02045414224267006,-0.029825540259480476
1758440520508809700,0.046809814453125,-0.054559916257858276,0.018038654699921608,0.03548715263605118
1758440520518780700,0.05678076171875,-0.020493291318416595,0.06924298405647278,0.10434078425168991
1758440520528750600,0.06675048828125,0.00549170421436429,0.11115794628858566,0.1662323772907257
1758440520538721800,0.0767216796875,0.023257119581103325,0.12357679754495621,0.1915971338748932
1758440520548691700,0.086691650390625,0.03405570611357689,0.1283707618713379,0.17893406748771667
1758440520558661600,0.09666162109375,0.03905738890171051,0.1408705711364746,0.14563922584056854
1758440520568632600,0.106632568359375,0.03723152354359627,0.15489663183689117,0.10844685137271881
1758440520578602800,0.116602783203125,0.03876497223973274,0.15751506388187408,0.08246398717164993
1758440520588573700,0.12657373046875,0.03579634800553322,0.14728479087352753,0.06240931525826454
1758440520598543600,0.136543701171875,0.0335739403963089,0.11499796062707901,0.047617051750421524
1758440520608513500,0.146513427734375,0.02496367320418358,0.070411317050457,0.033003222197294235
1758440520618484700,0.156484619140625,0.011582620441913605,0.014826083555817604,0.015207448974251747
1758440520628454700,0.16645458984375,-0.00523710623383522,-0.022640597075223923,-0.007665110286325216
1758440520638425600,0.176425537109375,-0.019280487671494484,-0.02437538094818592,-0.022912239655852318
1758440520648395800,0.186395751953125,-0.02443050779402256,-0.0296108890324831,-0.02009914256632328
1758440520658365700,0.19636572265625,-0.02316444180905819,-0.03513322025537491,-0.011159710586071014
1758440520668336600,0.206336669921875,-0.02311410754919052,-0.02172793261706829,-0.0024860608391463757
1758440520678306800,0.216306884765625,-0.024147147312760353,0.0035744947381317616,0.0054520233534276485
1758440520688277800,0.22627783203125,-0.021588383242487907,0.020497817546129227,0.014426076784729958
1758440520698247700,0.23624755859375,-0.017589379101991653,0.022881614044308662,0.018078602850437164
1758440520708217600,0.246217529296875,-0.012398612685501575,0.012723252177238464,0.0113988621160388
1758440520718188800,0.256188720703125,-0.012268383987247944,0.006394249852746725,0.003896470880135894
1758440520728158700,0.26615869140625,-0.01197170838713646,-0.0024232103023678064,-0.004801679402589798
1758440520738129700,0.276129638671875,-0.010334130376577377,-0.008501608856022358,-0.016936639323830605
1758440520748099800,0.286099853515625,-0.010824152268469334,-0.012449745088815689,-0.03238696977496147
1758440520758069800,0.29606982421875,-0.008902414701879025,-0.02582280896604061,-0.046187203377485275
1758440520768040700,0.306040771484375,-0.006755640730261803,-0.04687376692891121,-0.056221991777420044
1758440520778010600,0.3160107421875,-0.0025952504947781563,-0.05893229320645332,-0.06154831498861313
1758440520787981800,0.32598193359375,0.0016415724530816078,-0.054378021508455276,-0.05226986110210419
1758440520797951700,0.33595166015625,0.0013459615875035524,-0.03544773906469345,-0.035233087837696075
1758440520807921700,0.345921630859375,0.002510828198865056,-0.0062397862784564495,-0.01119166798889637
1758440520817892900,0.355892822265625,0.0056954361498355865,0.011799401603639126,0.011656922288239002
1758440520827862800,0.36586279296875,0.008016115054488182,0.025125326588749886,0.025143170729279518
1758440520837833700,0.375833740234375,0.008207595907151699,0.039923179894685745,0.028985578566789627
1758440520847803600,0.3858037109375,0.0038783615455031395,0.033667150884866714,0.026579679921269417
1758440520857773800,0.39577392578125,-0.0025598304346203804,0.025495773181319237,0.014390656724572182
1758440520867744800,0.405744873046875,-0.014274010434746742,0.021634722128510475,-0.00014088122406974435
1758440520877714700,0.415714599609375,-0.019767845049500465,0.006326871924102306,-0.006688795518130064
1758440520887686000,0.425685791015625,-0.019950006157159805,-0.010280600748956203,-0.010321080684661865
1758440520897655800,0.43565576171875,-0.023262977600097656,-0.03136271610856056,-0.00905714463442564
1758440520907625700,0.445625732421875,-0.020895695313811302,-0.03478701040148735,-0.010636664927005768
1758440520917597000,0.455596923828125,-0.01818166673183441,-0.018148910254240036,-0.012240953743457794
1758440520927566800,0.46556689453125,-0.011260377243161201,-0.004948153160512447,-0.013157879933714867
1758440520937537800,0.475537841796875,-0.006603574380278587,0.0022389194928109646,-0.00993385724723339
1758440520947507700,0.4855078125,-0.0009624664089642465,0.0017097494564950466,0.003513508476316929
1758440520957478000,0.495477783203125,0.0009600695921108127,0.012261725962162018,0.016101205721497536
1758440520967448800,0.50544873046875,-0.0036916739773005247,0.03056083805859089,0.02887878566980362
1758440520977418800,0.515418701171875,-0.008821987546980381,0.05128369480371475,0.030397852882742882
1758440520987389700,0.5253896484375,-0.00827657151967287,0.04699413850903511,0.026626018807291985
1758440520997359900,0.53535986328125,-0.00589597225189209,0.012406336143612862,0.008480303920805454
1758440521007329800,0.545329833984375,-0.009630522690713406,-0.03501817211508751,-0.012832707725465298
1758440521017300500,0.555300537109375,-0.021622737869620323,-0.0635073333978653,-0.032472722232341766
1758440521027271000,0.56527099609375,-0.025731729343533516,-0.049125202000141144,-0.04581169784069061
1758440521037241600,0.57524169921875,-0.023551398888230324,-0.014643125236034393,-0.04327370598912239
1758440521047211500,0.58521142578125,-0.0129323098808527,0.012827381491661072,-0.03666054084897041
1758440521057181700,0.595181640625,-0.005314870737493038,0.01751401275396347,-0.03069639392197132
1758440521067152600,0.605152587890625,-0.0004106594424229115,0.020380372181534767,-0.03295661881566048
1758440521077122800,0.615122802734375,0.0005613943794742227,0.011862251907587051,-0.03057362139225006
1758440521087093500,0.625093505859375,0.005539108533412218,0.006402771919965744,-0.019575566053390503
1758440521097063700,0.635063720703125,-0.0022836606949567795,0.02063656970858574,-0.006970025133341551
1758440521107033900,0.645033935546875,-0.004323908127844334,0.03009824827313423,0.004930576309561729
1758440521117004500,0.655004638671875,-0.007151119876652956,0.021527929231524467,0.013459616340696812
1758440521126974500,0.664974365234375,-0.00817830115556717,0.007586014457046986,0.012020443566143513
1758440521136945700,0.674945556640625,-0.009289638139307499,-0.007839281111955643,0.005887450184673071
1758440521146915600,0.68491552734375,-0.010320015251636505,-0.02640657313168049,0.0000601874417043291
1758440521156885500,0.694885498046875,-0.008945291861891747,-0.013099290430545807,-0.007493336219340563
1758440521166856700,0.704856689453125,-0.005500758998095989,0.01702612079679966,-0.00869095977395773
1758440521176826600,0.71482666015625,-0.006494917441159487,0.026510702446103096,0.0032642364967614412
1758440521186797600,0.724797607421875,-0.009446765296161175,0.03497343137860298,0.006160424090921879
1758440521196767700,0.734767822265625,-0.0054453653283417225,0.046912647783756256,-0.0011547466274350882
1758440521206737700,0.744737548828125,-0.004295146092772484,0.04386705532670021,-0.011351191438734531
1758440521216708600,0.75470849609375,-0.0005054679932072759,0.026203639805316925,-0.020437363535165787
1758440521226678500,0.764678466796875,0.003397660795599222,0.0010604707058519125,-0.029957633465528488
1758440521236649700,0.774649658203125,-0.0008684568456374109,-0.024287495762109756,-0.026087792590260506
1758440521246619600,0.78461962890625,-0.002043709857389331,-0.03498008847236633,-0.00971760880202055
1758440521256589600,0.794589599609375,-0.0025981799699366093,-0.02184697613120079,0.011500595137476921
1758440521266560800,0.804560791015625,-0.0028881982434540987,0.006585997529327869,0.03362986445426941
1758440521276530700,0.81453076171875,-0.0037433390971273184,0.032822929322719574,0.05343499407172203
1758440521286501600,0.824501708984375,-0.010014817118644714,0.052433647215366364,0.06516994535923004
1758440521296471600,0.834471435546875,-0.007153250742703676,0.06227029860019684,0.07654910534620285
1758440521306442800,0.84444287109375,-0.0003022687742486596,0.06464051455259323,0.0757184624671936
1758440521316412700,0.85441259765625,0.005661880597472191,0.05946412682533264,0.05621347203850746
1758440521326382600,0.864382568359375,0.008319715037941933,0.03600673750042915,0.03657958284020424
1758440521336353800,0.874353759765625,0.007694138679653406,0.004191549029201269,0.021565213799476624
1758440521346323700,0.88432373046875,0.011082478798925877,-0.006448045372962952,0.014011689461767673
1758440521356294700,0.894294677734375,0.008567921817302704,0.00007456851017195731,0.014899320900440216
1758440521366264600,0.9042646484375,0.00555322365835309,0.015268168412148952,0.02257401868700981
1758440521376234800,0.91423486328125,0.00025779398856684566,0.019899405539035797,0.03325435891747475
1758440521386205700,0.924205810546875,0.000054861116950633004,0.021042168140411377,0.036911945790052414
1758440521396175600,0.934175537109375,-0.005815544631332159,0.016113189980387688,0.030075345188379288
1758440521406146800,0.944146728515625,-0.012505671940743923,-0.0004367584188003093,0.015371233224868774
1758440521416116700,0.95411669921875,-0.012926983647048473,-0.015065236017107964,-0.001193362521007657
1758440521426086700,0.964086669921875,-0.010062487795948982,-0.024776186794042587,-0.013552294112741947
1758440521436057900,0.974057861328125,-0.005459746345877647,-0.036725789308547974,-0.019630959257483482
1758440521446027800,0.98402783203125,-0.00219524372369051,-0.030849259346723557,-0.016092417761683464
1758440521455998700,0.993998779296875,-0.0006958839949220419,-0.023133015260100365,-0.005305549595504999
1758440521465968600,1.00396875,0.00126739835832268,-0.008478972129523754,0.015539544634521008
1758440521475939000,1.01393896484375,0.005852829199284315,0.009583917446434498,0.03570100665092468
1758440521485910000,1.023909912109375,0.006454969756305218,0.01569533906877041,0.04926102235913277
1758440521495880200,1.033880126953125,0.0033960631117224693,0.01932549476623535,0.048167794942855835
1758440521505851100,1.04385107421875,0.004262655507773161,0.02538551762700081,0.0317763052880764
1758440521515821000,1.053821044921875,0.0011749867117032409,0.017053818330168724,0.009801764041185379
1758440521525792000,1.0637919921875,-0.004197674337774515,-0.00872078724205494,-0.0037942056078463793
1758440521535762200,1.07376220703125,-0.007679757662117481,-0.03133608400821686,-0.008310927078127861
1758440521545732000,1.083732177734375,-0.010326406918466091,-0.0335097573697567,-0.010626012459397316
1758440521555703000,1.093703125,-0.012753079645335674,-0.008731706067919731,-0.00569916469976306
1758440521565673200,1.103673095703125,-0.013071860186755657,0.013064403086900711,0.009439840912818909
1758440521575644000,1.113643798828125,-0.010457701049745083,0.022597987204790115,0.02436446212232113
1758440521585614000,1.123614013671875,-0.006616889964789152,0.025600967928767204,0.0322524793446064
1758440521595584000,1.133583984375,-0.003975300583988428,0.020357469096779823,0.028630046173930168
1758440521605555000,1.143554931640625,-0.0017214673571288586,0.006450442597270012,0.017795242369174957
1758440521615525000,1.153525146484375,0.00005885586142539978,-0.016868462786078453,0.0046727824956178665
1758440521625496000,1.16349609375,0.0036397422663867474,-0.02678261138498783,-0.004286357667297125
1758440521635466000,1.173466064453125,0.0013558153295889497,-0.018612565472722054,-0.015599465928971767
1758440521645436200,1.183436279296875,-0.006205698009580374,0.0012053466634824872,-0.01780429668724537
1758440521655406800,1.19340673828125,-0.008949552662670612,0.018688200041651726,-0.013165070675313473
1758440521665377000,1.203376953125,-0.005031510256230831,0.03198855742812157,-0.004180097486823797
1758440521675348000,1.213347900390625,-0.004500475712120533,0.03621499612927437,-0.0002724413643591106
1758440521685318000,1.22331787109375,-0.00780545873567462,0.024768462404608727,0.002897785510867834
1758440521695288000,1.2332880859375,-0.01540505513548851,-0.0035390746779739857,0.00809148233383894
1758440521705259000,1.243259033203125,-0.009590042755007744,-0.025967685505747795,0.01383831724524498
1758440521715229000,1.25322900390625,-0.0003757720405701548,-0.016204535961151123,0.016115320846438408
1758440521725200000,1.263199951171875,0.005372661165893078,-0.0034013893455266953,0.015438877046108246
1758440521735170000,1.273170166015625,0.00526640098541975,0.000934236915782094,0.016571786254644394
1758440521745141000,1.28314111328125,0.004942294210195541,0.010312292724847794,0.013546701520681381
1758440521755111000,1.29311083984375,0.0029198897536844015,0.011081946082413197,0.009822004474699497
1758440521765080800,1.303080810546875,-0.0024024376180022955,0.002882871776819229,0.013904630206525326
1758440521775052000,1.313052001953125,-0.00803475733846426,-0.002222940558567643,0.015268701128661633
1758440521785022000,1.32302197265625,-0.010464625433087349,-0.00018642126815393567,0.008976717479526997
1758440521794993000,1.332992919921875,-0.011910455301404,0.002246642718091607,0.0017896442441269755
1758440521804963000,1.342963134765625,-0.01344736572355032,0.008527441881597042,0.001817873795516789
1758440521814933000,1.35293310546875,-0.0090542146936059,0.014034592546522617,0.004338023252785206
1758440521824904000,1.362904052734375,-0.0015089471125975251,0.021697038784623146,0.005254683084785938
1758440521834873900,1.372873779296875,-0.0012042814632877707,0.018620289862155914,-0.0015395734226331115
1758440521844845000,1.382844970703125,-0.004974784795194864,-0.007981760427355766,-0.004603007808327675
1758440521854815000,1.39281494140625,-0.004908205941319466,-0.024877652525901794,-0.00649678148329258
1758440521864785000,1.402784912109375,-0.005327653605490923,-0.01889725774526596,-0.007769239600747824
1758440521874756000,1.412756103515625,-0.0017885789275169373,0.004920456558465958,-0.003382214577868581
1758440521884726000,1.42272607421875,-0.0021856562234461308,0.024929851293563843,0.008393751457333565
1758440521894697000,1.432697021484375,-0.0006013417732901871,0.04265052452683449,0.018001636490225792
1758440521904667100,1.442667236328125,-0.0011150655336678028,0.04349527880549431,0.02202647179365158
1758440521914638000,1.45263818359375,-0.004229898564517498,0.02948758378624916,0.013677196577191353
1758440521924608000,1.46260791015625,-0.004641357343643904,0.0016556872287765145,0.001347559504210949
1758440521934578000,1.472577880859375,-0.010867294855415821,-0.02099263295531273,-0.010245713405311108
1758440521944549000,1.482549072265625,-0.01019830908626318,-0.023807328194379807,-0.019724169746041298
1758440521954519000,1.49251904296875,-0.012958142906427383,-0.014307833276689053,-0.01593901962041855
1758440521964490000,1.502489990234375,-0.011365306563675404,-0.008206264115869999,-0.0024596955627202988
1758440521974460200,1.512460205078125,-0.004833903629332781,-0.005689577199518681,0.01756221614778042
1758440521984430000,1.52243017578125,0.0001328917423961684,-0.003257844829931855,0.029220469295978546
1758440521994401000,1.532401123046875,0.0029350698459893465,0.0037790255155414343,0.030428213998675346
1758440522004371000,1.542370849609375,0.00036911413189955056,0.006435528863221407,0.025647306814789772
1758440522014342100,1.552342041015625,-0.0014080132823437452,-0.004705006722360849,0.018326276913285255
1758440522024312000,1.56231201171875,-0.006038983818143606,-0.013233513571321964,0.0037382792215794325
1758440522034283000,1.572282958984375,-0.009111206978559494,-0.0150388702750206,-0.0046480149030685425
1758440522044253200,1.582253173828125,-0.010436395183205605,-0.0101402522996068,-0.004165716469287872
1758440522054223000,1.59222314453125,-0.0043651871383190155,0.00583844818174839,-0.0006593986763618886
1758440522064194000,1.602194091796875,-0.0016010924009606242,0.01883520744740963,0.005126052536070347
1758440522074164200,1.612164306640625,-0.004895955324172974,0.0133275231346488,0.00845393817871809
1758440522084135200,1.62213525390625,-0.01124839298427105,-0.0035744947381317616,0.008766593411564827
1758440522094105000,1.63210498046875,-0.01389903761446476,-0.014304370619356632,0.0003680488734971732
1758440522104075000,1.642074951171875,-0.01338531356304884,-0.020439228042960167,-0.015779228881001472
1758440522114046200,1.652046142578125,-0.01136743649840355,-0.03327992558479309,-0.021256020292639732
1758440522124016000,1.66201611328125,-0.0023963123094290495,-0.03236699476838112,-0.01588761992752552
1758440522133987000,1.671987060546875,0.006126069463789463,-0.0080885523930192,-0.004856806714087725
1758440522143957200,1.681957275390625,0.007665110286325216,0.006374276243150234,0.013141901232302189
1758440522153928000,1.691927978515625,0.006126335822045803,0.01158661488443613,0.024205470457673073
1758440522163898000,1.701898193359375,0.004132160916924477,0.008762598969042301,0.02473703771829605
1758440522173868000,1.711867919921875,0.0006974819116294384,-0.0037862160243093967,0.013054815120995045
1758440522183839000,1.7218388671875,-0.005058408249169588,-0.022972160950303078,-0.0021222729701548815
1758440522193809200,1.73180908203125,-0.005499694030731916,-0.025612153112888336,-0.013450294733047485
1758440522203779800,1.74177978515625,-0.006149238906800747,-0.01522768847644329,-0.020841099321842194
1758440522213750000,1.75175,-0.00839534867554903,-0.0062184808775782585,-0.019424032419919968
1758440522223720200,1.76172021484375,-0.007743140682578087,0.003478088416159153,-0.017010675743222237
1758440522233691000,1.77169091796875,-0.017292970791459084,0.010221478529274464,-0.01900298520922661
1758440522243660800,1.781660888671875,-0.02154790237545967,0.0018309232546016574,-0.017588846385478973
1758440522253632000,1.791632080078125,-0.022359900176525116,-0.006074403878301382,-0.008873119950294495
1758440522263602000,1.801601806640625,-0.017732124775648117,-0.002159024588763714,0.0017728663515299559
1758440522273572900,1.81157275390625,-0.0100238723680377,0.0026549051981419325,0.011993013322353363
1758440522283543000,1.82154296875,-0.0007627293234691024,0.0070975907146930695,0.01587536931037903
1758440522293513000,1.831512939453125,0.008018244989216328,0.002264485927298665,0.014733672142028809
1758440522303484000,1.84148388671875,0.00860573910176754,-0.0054853130131959915,0.012681706808507442
1758440522313454000,1.8514541015625,0.0044104610569775105,-0.013095029629766941,0.00947792362421751
1758440522323425000,1.861425048828125,0.001133707701228559,-0.022397184744477272,0.007024087477475405
1758440522333395000,1.87139501953125,-0.004849083721637726,-0.015055648051202297,0.009193232282996178
1758440522343366100,1.8813662109375,-0.010687531903386116,0.010577542707324028,0.011736550368368626
1758440522353336000,1.891336181640625,-0.015215437859296799,0.026706712320446968,0.014288391917943954
1758440522363306000,1.901305908203125,-0.010536530055105686,0.023433420807123184,0.009407083503901958
1758440522373277000,1.91127685546875,-0.008491755463182926,0.008440090343356133,0.002026133006438613
1758440522383247000,1.9212470703125,-0.007837150245904922,-0.005139101762324572,-0.011960788629949093
1758440522393218000,1.931218017578125,-0.008074970915913582,-0.008833172731101513,-0.023500531911849976
1758440522403188000,1.94118798828125,-0.00974530540406704,-0.014334730803966522,-0.027468375861644745
1758440522413159200,1.9511591796875,-0.005009139887988567,-0.019282085821032524,-0.024450747296214104
1758440522423129000,1.961129150390625,-0.0019531622529029846,-0.01588495634496212,-0.01703703962266445
1758440522433099000,1.97109912109375,0.0015632755821570754,-0.013279586099088192,-0.0034469293896108866
1758440522443070000,1.981070068359375,0.003984621725976467,-0.0004791026876773685,0.01417600642889738
1758440522453040000,1.9910400390625,0.007507184520363808,0.018260762095451355,0.02604704722762108
1758440522463011000,2.001010986328125,0.0060059609822928905,0.031014109030365944,0.03153049573302269
1758440522472981000,2.01098095703125,-0.00126713200006634,0.03388739377260208,0.028745893388986588
1758440522482951200,2.020951171875,-0.008251272141933441,0.029092105105519295,0.01888660527765751
1758440522492921000,2.030921142578125,-0.01293577253818512,0.01432114839553833,0.005569202359765768
1758440522502891000,2.04089111328125,-0.013368003070354462,-0.008065116591751575,-0.008291752077639103
1758440522512862200,2.0508623046875,-0.013432717882096767,-0.026546122506260872,-0.0186474546790123
1758440522522832100,2.06083203125,-0.009140501730144024,-0.026311764493584633,-0.022954585030674934
1758440522532803000,2.070802978515625,-0.0057130130007863045,-0.026623355224728584,-0.011410047300159931
1758440522542773200,2.080773193359375,-0.0018141453620046377,-0.017528394237160683,0.005783320404589176
1758440522552744200,2.090744140625,-0.0003070624661631882,0.005353220272809267,0.021159879863262177
1758440522562714000,2.100714111328125,-0.000060986389144090936,0.026978088542819023,0.030760575085878372
1758440522572685300,2.110685302734375,-0.0004242415598127991,0.0350104495882988,0.036859747022390366
1758440522582655200,2.1206552734375,-0.00019654128118418157,0.02901434153318405,0.031092138960957527
1758440522592625200,2.130625244140625,-0.002481799805536866,0.0075908079743385315,0.015392538160085678
1758440522602596000,2.14059619140625,-0.008925584144890308,-0.016687633469700813,-0.0013675332302227616
1758440522612566300,2.150566162109375,-0.008442486636340618,-0.022245118394494057,-0.0156540609896183
1758440522622537200,2.160537109375,-0.00333134806714952,-0.010801514610648155,-0.022713834419846535
1758440522632507100,2.170507080078125,-0.0065436530858278275,-0.014426076784729958,-0.015917181968688965
1758440522642478300,2.180478271484375,-0.005930060520768166,-0.011506187729537487,-0.0060019660741090775
1758440522652448300,2.1904482421875,-0.007272560149431229,0.0011584750609472394,0.00791677925735712
1758440522662419200,2.200419189453125,-0.001800030586309731,0.005331115797162056,0.021743377670645714
1758440522672389400,2.210389404296875,0.0030895331874489784,0.009726663120090961,0.026586070656776428
1758440522682360000,2.220360107421875,-0.0009374326909892261,0.008729576133191586,0.01997290924191475
1758440522692330200,2.230330322265625,-0.0038954056799411774,-0.0009946906939148903,0.009830259718000889
1758440522702300200,2.240300048828125,-0.003953462466597557,-0.011907791718840599,-0.004608334042131901
1758440522712271000,2.25027099609375,-0.008475244045257568,-0.009044894017279148,-0.013832458294928074
1758440522722241300,2.2602412109375,-0.00436092633754015,-0.011672368273139,-0.01347373053431511
1758440522732212000,2.2702119140625,-0.001201618229970336,-0.0037119139451533556,-0.010823353193700314
1758440522742182100,2.28018212890625,-0.00609437795355916,0.007318899035453796,-0.006454703398048878
1758440522752153000,2.290153076171875,-0.010356500744819641,0.005889047868549824,0.002304699504747987
1758440522762123000,2.300123046875,-0.009124788455665112,0.0002359560749027878,0.010517089627683163
1758440522772094200,2.31009423828125,-0.007137537933886051,-0.00640703272074461,0.010520551353693008
1758440522782064000,2.320064208984375,-0.006759102921932936,-0.011406585574150085,0.003894606838002801
1758440522792035000,2.33003515625,-0.004194478504359722,-0.01321274135261774,-0.000467118457891047
1758440522802005000,2.3400048828125,0.00281948852352798,-0.009543171152472496,-0.003087136195972562
1758440522811975200,2.34997509765625,0.0027979169972240925,-0.012312592938542366,-0.00199284334667027
1758440522821946000,2.359946044921875,0.003373692510649562,-0.012791162356734276,-0.0013393036788329482
1758440522831916000,2.369916015625,0.001868473831564188,-0.010498713701963425,-0.006479737348854542
1758440522841887200,2.37988720703125,-0.0012173309223726392,-0.010186058469116688,-0.007522098254412413
1758440522851857200,2.389857177734375,-0.0033750240691006184,-0.003233343828469515,-0.0007012102869339287
1758440522861828000,2.399828125,-0.0006897587445564568,0.016557937487959862,0.006677609868347645
1758440522871798300,2.40979833984375,-0.0013315805699676275,0.030375748872756958,0.01636805385351181
1758440522881769200,2.419769287109375,-0.0043803672306239605,0.03289802744984627,0.021464278921484947
1758440522891739100,2.4297392578125,-0.007782555650919676,0.02978292852640152,0.01847248338162899
1758440522901709000,2.439708984375,-0.012884905561804771,0.016882842406630516,0.009230515919625759
1758440522911680300,2.44968017578125,-0.012137089855968952,0.006457632873207331,-0.00407543545588851
1758440522921650200,2.459650146484375,-0.010176471434533596,-0.006184925325214863,-0.01414511352777481
1758440522931621000,2.46962109375,-0.009188172407448292,-0.01871216855943203,-0.015341139398515224
1758440522941591300,2.47959130859375,-0.005816876422613859,-0.01649135909974575,-0.014183729887008667
1758440522951562200,2.489562255859375,-0.0020125508308410645,-0.005535646807402372,-0.004504204262048006
1758440522961532200,2.4995322265625,-0.0018975022248923779,0.009033975191414356,0.010670754127204418
1758440522971503400,2.50950341796875,0.004117779433727264,0.02088743820786476,0.023562317714095116
1758440522981473300,2.519473388671875,0.00236249016597867,0.02760978974401951,0.030430875718593597
1758440522991444200,2.5294443359375,0.0008143946761265397,0.02744787000119686,0.03073820471763611
1758440523001414100,2.5394140625,-0.005675462540239096,0.021020064130425453,0.01925092563033104
1758440523011384300,2.54938427734375,-0.010205766186118126,0.007130081299692392,0.0008093346259556711
1758440523021355300,2.559355224609375,-0.013569604605436325,-0.01798272877931595,-0.014222078956663609
1758440523031325200,2.5693251953125,-0.014181599020957947,-0.03003299981355667,-0.021373465657234192
1758440523041296100,2.579296142578125,-0.012485431507229805,-0.01798299513757229,-0.024810807779431343
1758440523051266300,2.589266357421875,-0.009718406945466995,-0.004446147475391626,-0.01774464175105095
1758440523061237000,2.599237060546875,-0.004594485275447369,0.009104548953473568,-0.006395314820110798
1758440523071207200,2.609207275390625,-0.0020636834669858217,0.016508135944604874,0.007499461527913809
1758440523081178000,2.61917822265625,0.0015872439835220575,0.01967809721827507,0.015360847115516663
1758440523091148000,2.62914794921875,0.0022919164039194584,0.01702851802110672,0.015585617162287235
1758440523101119000,2.639118896484375,0.0036370791494846344,0.011147459968924522,0.013863617554306984
1758440523111089200,2.649089111328125,0.004037618637084961,-0.0009941579774022102,0.005545766558498144
1758440523121060000,2.65906005859375,-0.0008556736283935606,-0.017459949478507042,0.0011566109023988247
1758440523131030000,2.669030029296875,-0.007305583450943232,-0.02479003556072712,-0.006249906495213509
1758440523141000200,2.679000244140625,-0.011748002842068672,-0.022114623337984085,-0.00950775109231472
1758440523150971100,2.68897119140625,-0.013364008627831936,-0.012988769449293613,-0.008635831996798515
1758440523160941000,2.698941162109375,-0.011579424142837524,0.0004900216590613127,-0.0015393070643767715
1758440523170912300,2.708912353515625,-0.008491222746670246,0.01774544082581997,0.006747651379555464
1758440523180882200,2.718882080078125,-0.0033571808598935604,0.02605583518743515,0.012782374396920204
1758440523190853000,2.72885302734375,-0.0016873788554221392,0.02028476446866989,0.010880344547331333
1758440523200823000,2.738822998046875,0.0006404902087524533,0.005848834291100502,0.0065196845680475235
1758440523210794200,2.748794189453125,0.000300404557492584,-0.009927998296916485,-0.004605937283486128
1758440523220764200,2.75876416015625,-0.0014660701854154468,-0.01763518713414669,-0.016398414969444275
1758440523230734000,2.768734130859375,-0.006991863250732422,-0.0223202183842659,-0.021460019052028656
1758440523240705300,2.778705322265625,-0.007477357517927885,-0.022607574239373207,-0.023608390241861343
1758440523250675200,2.78867529296875,-0.007249923422932625,-0.03448393940925598,-0.027787955477833748
1758440523260646100,2.798646240234375,-0.007417169865220785,-0.054115697741508484,-0.04236210510134697
1758440523270616000,2.808615966796875,-0.017422134056687355,-0.04121055454015732,-0.0391271635890007
1758440523280587300,2.818587158203125,-0.0132713308557868,-0.015366972424089909,-0.020978251472115517
1758440523290557200,2.82855712890625,-0.0029981867410242558,0.020109262317419052,0.0041646515019237995
1758440523300528000,2.838528076171875,0.003144660498946905,0.04041479900479317,0.021348165348172188
1758440523310498300,2.848498291015625,0.002264485927298665,0.0334375835955143,0.0290532223880291
1758440523320469200,2.85846923828125,-0.00032384038786403835,0.023752201348543167,0.023812389001250267
1758440523330439200,2.868439208984375,0.0013406352372840047,0.017480457201600075,0.014505173079669476
1758440523340409000,2.8784091796875,-0.0034413367975503206,0.016172844916582108,0.0009925601771101356
1758440523350380300,2.88838037109375,-0.009947971440851688,0.01464925054460764,-0.009457417763769627
1758440523360350200,2.89835009765625,-0.00930055696517229,0.00561074772849679,-0.010031594894826412
1758440523370321200,2.908321044921875,-0.0049404301680624485,0.005919141694903374,-0.015136076137423515
1758440523380291300,2.918291259765625,-0.005299690645188093,0.004619785584509373,-0.0157744362950325
1758440523390262000,2.928261962890625,-0.0054544201120734215,-0.0034075146540999413,-0.013218067586421967
1758440523400232200,2.938232177734375,-0.0035715652629733086,-0.011476626619696617,-0.0103141563013196
1758440523410203100,2.948203125,-0.006076002027839422,-0.015591476112604141,-0.004181429278105497
1758440523420173000,2.958173095703125,-0.006225138902664185,-0.016349412500858307,0.0026578346733003855
1758440523430144000,2.96814404296875,-0.0020695424173027277,0.0005179848521947861,0.007017695810645819
1758440523440114200,2.9781142578125,-0.0024881914723664522,0.007865379564464092,0.010438526049256325
1758440523450084000,2.988083984375,-0.0046852994710206985,0.0082089276984334,0.01224441546946764
1758440523460055000,2.998054931640625,-0.005622199270874262,0.0005661880713887513,0.008195878006517887
1758440523470025000,3.00802490234375,-0.005726595409214497,-0.008065649308264256,0.0013598100049421191
1758440523479996200,3.01799609375,-0.007803861051797867,-0.01194108184427023,-0.008290953002870083
1758440523489966000,3.027966064453125,-0.009064069017767906,-0.00812344066798687,-0.021857894957065582
1758440523499937000,3.03793701171875,-0.003971039317548275,-0.010996191762387753,-0.024471255019307137
1758440523509907200,3.0479072265625,0.0022530341520905495,-0.021875737234950066,-0.020078370347619057
1758440523519878100,3.057878173828125,0.005577191710472107,-0.018264224752783775,-0.014387994073331356
1758440523529848000,3.06784814453125,0.005409945268183947,-0.012176771648228168,-0.00929336715489626
1758440523539819300,3.0778193359375,0.0030722226947546005,-0.012708337977528572,0.004944957327097654
1758440523549789200,3.0877890625,0.006409962195903063,-0.004591822158545256,0.017784856259822845
1758440523559759000,3.097759033203125,0.006475209724158049,0.004677043296396732,0.028308603912591934
1758440523569730000,3.10772998046875,0.0037020600866526365,0.009968478232622147,0.03729171305894852
1758440523579700200,3.1177001953125,-0.001817873795516789,0.019517242908477783,0.039076827466487885
1758440523589671200,3.127671142578125,-0.002573412610217929,0.028961077332496643,0.0356336273252964
1758440523599641000,3.13764111328125,-0.007395065855234861,0.02792830392718315,0.02743082493543625
1758440523609612300,3.1476123046875,-0.010698184370994568,0.01745462417602539,0.015685219317674637
1758440523619582200,3.157582275390625,-0.011490208096802235,0.00503896689042449,0.0003062635369133204
1758440523629553200,3.16755322265625,-0.014521950855851173,-0.009412942454218864,-0.012604208663105965
1758440523639523300,3.1775234375,-0.012736834585666656,-0.027190076187253,-0.019482355564832687
1758440523649494300,3.187494384765625,-0.011594071984291077,-0.032033033668994904,-0.01818033494055271
1758440523659464200,3.197464111328125,-0.009780192747712135,-0.018671421334147453,-0.009524262510240078
1758440523669434000,3.20743408203125,-0.0041308291256427765,0.007668838836252689,0.001163002452813089
1758440523679405300,3.2174052734375,-0.0005965480813756585,0.031621575355529785,0.012312859296798706
1758440523689375200,3.227375244140625,-0.0016769925132393837,0.033181656152009964,0.01859285868704319
1758440523699346200,3.23734619140625,-0.0022053637076169252,0.015781892463564873,0.014104100875556469
1758440523709316400,3.24731640625,-0.009491772390902042,0.0008647284121252596,0.0025121597573161125
1758440523719287000,3.257287109375,-0.014937404543161392,-0.01649082638323307,-0.007215036079287529
1758440523729257200,3.26725732421875,-0.015450594946742058,-0.024176176637411118,-0.014769891276955605
1758440523739228200,3.277228271484375,-0.015720106661319733,-0.01435417216271162,-0.0166772473603487
1758440523749198000,3.287197998046875,-0.010773018933832645,0.007570834364742041,-0.008346613496541977
1758440523759169000,3.2971689453125,-0.00720518222078681,0.032819464802742004,0.003344131400808692
1758440523769139000,3.307138916015625,-0.002793922321870923,0.0320865623652935,0.011443336494266987
1758440523779110100,3.317110107421875,0.0003278351214248687,0.013729927130043507,0.013132845982909203
1758440523789080000,3.327080078125,0.004739627707749605,0.0006780407857149839,0.0031182952225208282
1758440523799050000,3.337050048828125,0.0025782061275094748,-0.011777031235396862,-0.011481952853500843
1758440523809021200,3.347021240234375,-0.001781921018846333,-0.024806013330817223,-0.018851185217499733
1758440523818991000,3.3569912109375,-0.0031369375064969063,-0.010819357819855213,-0.022428609430789948
1758440523828962000,3.366962158203125,-0.0029079054947942495,0.009137838147580624,-0.01260980125516653
1758440523838932200,3.37693212890625,-0.002095375210046768,0.02178012952208519,0.005935919936746359
1758440523848903200,3.386903076171875,-0.001782187377102673,0.01733478158712387,0.02268746867775917
1758440523858873000,3.396873046875,-0.000496945867780596,0.01062121894210577,0.032645296305418015
1758440523868844300,3.40684423828125,-0.003291400847956538,0.006373743526637554,0.033486854285001755
1758440523878814200,3.416814208984375,-0.002484729280695319,0.007998271845281124,0.028374649584293365
1758440523888784100,3.4267841796875,-0.0046725161373615265,0.005079713650047779,0.020973192527890205
1758440523898755000,3.436755126953125,-0.006307164207100868,-0.0015251922886818647,0.009383381344377995
1758440523908725200,3.446725341796875,-0.006071474403142929,-0.0049763829447329044,-0.003524960018694401
1758440523918696200,3.4566962890625,-0.007762049324810505,-0.014454307034611702,-0.008776447735726833
1758440523928666000,3.466666015625,-0.0065252771601080894,-0.019812054932117462,-0.011335745453834534
1758440523938637300,3.47663720703125,-0.01025716494768858,-0.02214684709906578,-0.012832707725465298
1758440523948607200,3.486607177734375,-0.010373278521001339,-0.018610702827572823,-0.012522449716925621
1758440523958578200,3.496578125,-0.008297078311443329,-0.008712531067430973,-0.010026002302765846
1758440523968548000,3.506548095703125,-0.007833688519895077,-0.00020746025256812572,-0.007276022341102362
1758440523978519300,3.516519287109375,-0.006475742440670729,0.007593204732984304,-0.0024322650860995054
1758440523988489200,3.5264892578125,-0.0023872575256973505,0.014830345287919044,0.0022836606949567795
1758440523998459100,3.536459228515625,-0.0027427896857261658,0.007929561659693718,0.007216633763164282
1758440524008430300,3.546430419921875,-0.0027198863681405783,0.003638144349679351,0.008160724304616451
1758440524018400300,3.556400146484375,0.0008117315010167658,0.0012535499408841133,0.0035510589368641376
1758440524028371200,3.56637109375,-0.00016964336100500077,0.0025750105269253254,0.0051745218224823475
1758440524038341000,3.576341064453125,0.0029111013282090425,0.00887738075107336,0.009740511886775494
1758440524048312000,3.58631201171875,0.00029534456552937627,0.0158306285738945,0.010902981273829937
1758440524058282200,3.5962822265625,-0.004461860284209251,0.011495002545416355,0.011780759319663048
1758440524068253000,3.6062529296875,-0.004644286818802357,0.003817641409114003,0.01396002434194088
1758440524078223000,3.61622314453125,-0.007583084981888533,0.004978779703378677,0.019241604954004288
1758440524088194000,3.626194091796875,-0.004996356554329395,0.01708497665822506,0.013532852753996849
1758440524098164000,3.6361640625,-0.002597114769741893,0.01678750291466713,0.0030892668291926384
1758440524108134100,3.646134033203125,-0.002094309777021408,-0.0012000204296782613,-0.010242783464491367
1758440524118105000,3.65610498046875,-0.00515801040455699,-0.021635254845023155,-0.019239474087953568
1758440524128075000,3.666074951171875,-0.011058510281145573,-0.026516828685998917,-0.0217732060700655
1758440524138046200,3.676046142578125,-0.01076769270002842,-0.013523265719413757,-0.011593272909522057
1758440524148016000,3.68601611328125,-0.0025936525780707598,0.008836101740598679,0.0030298782512545586
1758440524157987000,3.695987060546875,0.0059995693154633045,0.030733944848179817,0.021135644987225533
1758440524167957000,3.70595703125,0.0049007488414645195,0.04057405889034271,0.03214382007718086
1758440524177928200,3.71592822265625,0.0012274509062990546,0.027127224951982498,0.02694852650165558
1758440524187898000,3.725898193359375,-0.001609614584594965,-0.005923136603087187,0.012597017921507359
1758440524197869000,3.735869140625,-0.00660543842241168,-0.02779514528810978,-0.007179882377386093
1758440524207839200,3.745839111328125,-0.007923436351120472,-0.03361894562840462,-0.02664972096681595
1758440524217809200,3.75580908203125,-0.005600361619144678,-0.027463315054774284,-0.034757714718580246
1758440524227780000,3.765780029296875,0.000011984225238848012,-0.010234261862933636,-0.02930196188390255
1758440524237750000,3.77575,0.005967078730463982,0.007751396391540766,-0.013220197521150112
1758440524247721200,3.78572119140625,0.009342102333903313,0.023067235946655273,0.004509530495852232
1758440524257691100,3.795691162109375,0.00950988195836544,0.016394419595599174,0.011920841410756111
1758440524267662000,3.805662109375,0.0092923017218709,0.005276254843920469,0.011056912131607533
1758440524277632300,3.81563232421875,0.005004612263292074,-0.0024383901618421078,0.0031161648221313953
1758440524287603200,3.825603271484375,0.0010122675448656082,-0.0054272557608783245,-0.007441138383001089
1758440524297573000,3.835572998046875,-0.007651794236153364,0.0010343717876821756,-0.012823387049138546
1758440524307544300,3.84554443359375,-0.013504090718925,0.009970076382160187,-0.011464109644293785
1758440524317514200,3.85551416015625,-0.017369402572512627,0.01266785804182291,-0.0022029669489711523
1758440524327484200,3.865484130859375,-0.013372530229389668,0.017493773251771927,0.0062704128213226795
1758440524337455400,3.875455322265625,-0.008613727986812592,0.00839668046683073,0.005254150368273258
1758440524347425300,3.88542529296875,-0.007772968150675297,-0.014597584493458271,0.001184574095532298
1758440524357396200,3.895396240234375,-0.005905027035623789,-0.031146466732025146,-0.0010159959783777595
1758440524367366100,3.9053662109375,-0.0032285500783473253,-0.01630360633134842,0.0005001416429877281
1758440524377337300,3.91533740234375,-0.0023853934835642576,0.014088921248912811,0.009385245852172375
1758440524391046100,3.929046142578125,0.004492220003157854,0.0381588377058506,0.02515621855854988
1758440524401017000,3.93901708984375,0.005334045272320509,0.039191875606775284,0.02767157554626465
1758440524410987300,3.9489873046875,0.003591272747144103,0.026624154299497604,0.02039581909775734
1758440524420958000,3.9589580078125,0.00013369068619795144,0.005693572107702494,0.005917011294513941
1758440524430928100,3.96892822265625,-0.0057015614584088326,-0.014475079253315926,-0.011202320456504822
1758440524440899000,3.978899169921875,-0.01079991739243269,-0.014193583279848099,-0.02394527941942215
1758440524450869000,3.988868896484375,-0.01239328645169735,-0.008607069961726665,-0.026223881170153618
1758440524460839200,3.998839111328125,-0.010958908125758171,-0.004292749334126711,-0.016712933778762817
1758440524470810000,4.00881005859375,-0.005254416726529598,0.003061569994315505,-0.0054791877046227455
1758440524480780000,4.018780029296875,0.0020714066922664642,0.006619020365178585,0.0017419736832380295
1758440524490751000,4.0287509765625,0.003849332919344306,0.006951382849365473,0.008609200827777386
1758440524500721000,4.038720947265625,0.006770021747797728,0.012444152496755123,0.008649947121739388
1758440524510692000,4.048692138671875,0.0029856697656214237,0.016082296147942543,0.0011800467036664486
1758440524520662000,4.058662109375,-0.0011174624087288976,0.007654457353055477,-0.0041763694025576115
1758440524530633000,4.068633056640625,-0.002122006844729185,0.0032402679789811373,-0.00948138628154993
1758440524540603000,4.078602783203125,-0.002796319080516696,0.0006332996999844909,-0.011437743902206421
1758440524550574000,4.088573974609375,-0.0067748152650892735,-0.0075194351375103,-0.00765898497775197
1758440524560544000,4.0985439453125,-0.009866478852927685,-0.008496548980474472,-0.005632053129374981
1758440524570514000,4.108513916015625,-0.008445949293673038,-0.0016016251174733043,-0.006582535337656736
1758440524580485000,4.118485107421875,-0.00971787516027689,0.002217081608250737,-0.001662877737544477
1758440524590455000,4.128455078125,-0.00888110976666212,0.0034615767654031515,-0.0004873584839515388
1758440524600426000,4.138426025390625,-0.010950385592877865,0.010745055973529816,0.002028263406828046
1758440524610396200,4.148396240234375,-0.014021010138094425,0.010125338099896908,0.007770571392029524
1758440524620367000,4.1583671875,-0.008925850503146648,0.004897020757198334,0.006731938570737839
1758440524630337000,4.1683369140625,-0.002977147698402405,0.000002663161012605997,0.00506852800026536
1758440524640308200,4.17830810546875,-0.0012804478174075484,-0.0064805359579622746,0.005502357147634029
1758440524650278100,4.188278076171875,0.001356347929686308,-0.001475391210988164,0.004576376173645258
1758440524660249000,4.1982490234375,0.0009060074225999415,0.011187673546373844,0.006162820849567652
1758440524670219000,4.208218994140625,-0.0022034994326531887,0.010820955969393253,0.010006295517086983
1758440524680190200,4.218190185546875,-0.004999552387744188,0.010387393645942211,0.006131395697593689
1758440524690160000,4.22816015625,-0.006959106307476759,0.00207726564258337,-0.004542287439107895
1758440524700130000,4.238130126953125,-0.006965231616050005,-0.006147907115519047,-0.010342651978135109
1758440524710100000,4.248099853515625,-0.003762780223041773,-0.025915220379829407,-0.005726329050958157
1758440524720071200,4.2580712890625,0.003751062322407961,-0.014444186352193356,-0.005747634451836348
1758440524730041000,4.268041015625,0.008566590026021004,0.011065966449677944,-0.004268780816346407
1758440524740012000,4.278011962890625,-0.0027209515683352947,0.02225630357861519,0.008477906696498394
1758440524749982200,4.287982177734375,-0.0005049353349022567,0.028000475838780403,0.020252540707588196
1758440524759953000,4.297952880859375,0.002584864152595401,0.027350930497050285,0.02184031717479229
1758440524769923000,4.307923095703125,-0.0039039277471601963,0.020192885771393776,0.015074556693434715
1758440524779894000,4.31789404296875,-0.008212655782699585,0.011198592372238636,-0.0020743361674249172
1758440524789864000,4.327864013671875,-0.00777749577537179,-0.0005211806274019182,-0.01703597418963909
1758440524799835000,4.3378349609375,-0.004827245604246855,-0.009971673600375652,-0.01745142787694931
1758440524809804800,4.3478046875,-0.003879959462210536,-0.01848207227885723,-0.008884837850928307
1758440524819776000,4.35777587890625,-0.003976631909608841,-0.016523582860827446,0.005422195885330439
1758440524829746000,4.367745849609375,-0.0020154803059995174,0.0024282701779156923,0.020496485754847527
1758440524839715800,4.3777158203125,-0.001633316627703607,0.020556140691041946,0.024939171969890594
1758440524849687000,4.38768701171875,-0.004828843753784895,0.014651646837592125,0.019364377483725548
1758440524859657000,4.397656982421875,-0.0062216767109930515,-0.009554889053106308,0.0035806200467050076
1758440524869628000,4.4076279296875,-0.009727195836603642,-0.024805480614304543,-0.014305702410638332
1758440524879598000,4.41759814453125,-0.014422881416976452,-0.02435993403196335,-0.023330090567469597
1758440524889569000,4.427569091796875,-0.01206731516867876,-0.012454804964363575,-0.01648816280066967
1758440524899539000,4.4375390625,-0.0013550163712352514,0.01064838282763958,-0.008744223043322563
1758440524909510100,4.44751025390625,0.0029119004029780626,0.025893116369843483,-0.00038482676609419286
1758440524919480000,4.45747998046875,0.006618488114327192,0.01804398186504841,0.005546032916754484
1758440524929451000,4.467450927734375,0.0067572384141385555,-0.00006258428766159341,0.009139702655375004
1758440524939421000,4.4774208984375,0.003910852130502462,-0.017658356577157974,0.008342618122696877
1758440524949392100,4.48739208984375,-0.001580053474754095,-0.020666662603616714,0.00987153872847557
1758440524959362000,4.497362060546875,-0.006594253238290548,-0.006208893842995167,0.011181281879544258
1758440524969332000,4.50733203125,-0.007180680986493826,0.009886985644698143,0.01703118160367012
1758440524979303200,4.51730322265625,-0.0067841364070773125,0.023543410003185272,0.021828599274158478
1758440524989273000,4.527273193359375,-0.00771677540615201,0.034859977662563324,0.01372380182147026
1758440524999244000,4.537244140625,-0.013640711084008217,0.0240776389837265,-0.002713228575885296
1758440525009214000,4.5472138671875,-0.02057558298110962,-0.0063124909065663815,-0.01537629310041666
1758440525019185200,4.55718505859375,-0.026645725592970848,-0.026867566630244255,-0.0210040844976902
1758440525029155000,4.567155029296875,-0.02401718497276306,-0.022283202037215233,-0.01702106185257435
1758440525039126000,4.5771259765625,-0.01882668398320675,0.0010524812387302518,-0.004879177547991276
1758440525049096200,4.58709619140625,-0.011845740489661694,0.01890311762690544,0.015779228881001472
1758440525059067100,4.597067138671875,-0.0033545177429914474,0.028603149577975273,0.030700653791427612
1758440525069037000,4.607037109375,0.0027427896857261658,0.02540256269276142,0.03176352381706238
1758440525079008000,4.617008056640625,0.002772883279249072,0.01937982253730297,0.022519955411553383
1758440525088978200,4.626978271484375,0.00037976677413098514,0.00173717993311584,0.010461695492267609
1758440525098948000,4.636947998046875,-0.004744953941553831,-0.009269398637115955,0.00020746025256812572
1758440525108919000,4.6469189453125,-0.01047447882592678,-0.012088354676961899,-0.002980609890073538
1758440525118889200,4.65688916015625,-0.01233522966504097,-0.014121677726507187,0.0008096009842120111
1758440525128860000,4.66685986328125,-0.015182148665189743,-0.012953882105648518,0.013537912629544735
1758440525138829800,4.676829833984375,-0.012527509592473507,0.0011267834343016148,0.02805027738213539
1758440525148801000,4.686801025390625,-0.010343184694647789,0.012711534276604652,0.03362241014838219
1758440525158771000,4.69677099609375,-0.009489108808338642,0.007762315683066845,0.025487516075372696
1758440525168742000,4.706741943359375,-0.008234494365751743,-0.009092831052839756,0.007553523872047663
1758440525178712000,4.716712158203125,-0.005796103738248348,-0.02094442956149578,-0.005303418729454279
1758440525188683000,4.72668310546875,-0.0014466290595009923,-0.02942606620490551,-0.015328888781368732
1758440525198653000,4.73665283203125,0.0023185480386018753,-0.020431239157915115,-0.012561065144836903
1758440525208624000,4.7466240234375,0.002046372974291444,-0.0031430625822395086,-0.001425057533197105
1758440525218594000,4.756593994140625,0.004808603785932064,0.013846040703356266,0.012917130254209042
1758440525228564000,4.76656396484375,0.00606375141069293,0.019875703379511833,0.020445354282855988
1758440525238535000,4.776534912109375,0.001814411603845656,0.010175406001508236,0.018157165497541428
1758440525248505000,4.786505126953125,-0.0022064289078116417,-0.000919323181733489,0.013071061111986637
1758440525258476000,4.79647607421875,-0.007399326656013727,-0.0029382656794041395,0.0031286815647035837
1758440525268446000,4.806446044921875,-0.01139832939952612,-0.0026407905388623476,-0.0037774275988340378
1758440525278417200,4.816417236328125,-0.011859855614602566,-0.011321097612380981,-0.006391586735844612
1758440525288387000,4.826386962890625,-0.0123056685552001,-0.01654382236301899,-0.005049886181950569
1758440525298358000,4.83635791015625,-0.011029748246073723,-0.015183480456471443,-0.0028756812680512667
1758440525308328200,4.846328125,-0.005617405753582716,-0.013350692577660084,0.003367034485563636
1758440525318299100,4.856299072265625,0.0005930859479121864,-0.010848386213183403,0.006306897848844528
1758440525328269000,4.86626904296875,0.0010902981739491224,-0.010393518954515457,0.009895240887999535
1758440525338240300,4.876240234375,0.002428004052489996,-0.00561021501198411,0.006478671915829182
1758440525348210200,4.886210205078125,0.0008692557457834482,0.007436610758304596,-0.004540423396974802
1758440525358180000,4.89618017578125,-0.0034413367975503206,0.004471447318792343,-0.009811618365347385
1758440525368151000,4.906151123046875,-0.002290584845468402,-0.005241101142019033,-0.008288289420306683
1758440525378121200,4.916121337890625,-0.0015156050212681293,-0.004758536349982023,-0.007139401976019144
1758440525388092200,4.926092041015625,-0.001303351018577814,0.006281598005443811,0.0009326389990746975
1758440525398062000,4.93606201171875,-0.001317998394370079,0.021252024918794632,0.007542072329670191
1758440525408033000,4.946032958984375,-0.0025505092926323414,0.02665052004158497,0.006217415910214186
1758440525418003200,4.956003173828125,-0.008322112262248993,0.012806875631213188,-0.0008215851848945022
1758440525427974000,4.965973876953125,-0.011259845457971096,-0.004883704707026482,-0.00908537395298481
1758440525437943800,4.97594384765625,-0.010384996421635151,-0.015507853589951992,-0.01434991043061018
1758440525447915000,4.9859150390625,-0.00851279404014349,-0.018631475046277046,-0.012030829675495625
1758440525457885000,4.995885009765625,-0.008232363499701023,-0.015330220572650433,-0.0070794811472296715
1758440525467856000,5.00585595703125,-0.0038211036007851362,-0.005015264730900526,-0.001663410454057157
1758440525477826000,5.015825927734375,-0.0035308189690113068,0.0018575548892840743,0.00962439738214016
1758440525487797500,5.025797607421875,-0.0014865765115246177,0.003156911116093397,0.02195509895682335
1758440525497767400,5.035767333984375,-0.001776328426785767,0.013923538848757744,0.03442322090268135
1758440525507737300,5.0457373046875,-0.001814677962101996,0.03039279393851757,0.042875561863183975
1758440525517708300,5.055708251953125,-0.0025808694772422314,0.036077577620744705,0.037083983421325684
1758440525527678500,5.065678466796875,-0.007495999336242676,0.023029951378703117,0.02305791527032852
1758440525537649400,5.0756494140625,-0.011411379091441631,-0.004780107643455267,0.008281099610030651
1758440525547619300,5.085619384765625,-0.012443353421986103,-0.01756434701383114,-0.006470948923379183
1758440525557590500,5.095590576171875,-0.011715778149664402,-0.018278339877724648,-0.014731807634234428
1758440525567560400,5.105560546875,-0.00926114246249199,-0.017660219222307205,-0.008678442798554897
1758440525577531400,5.115531494140625,-0.002124137245118618,-0.008771120570600033,0.001169394003227353
1758440525587501600,5.12550146484375,0.005327919963747263,0.006368150934576988,0.00875301193445921
1758440525597472500,5.135472412109375,0.008496815338730812,0.008841960690915585,0.013170663267374039
1758440525607442400,5.1454423828125,0.008481902070343494,0.0036882117856293917,0.014849785715341568
1758440525617413600,5.15541357421875,0.006865363102406263,0.0036506610922515392,0.010337858460843563
1758440525627383600,5.165383544921875,0.004232295788824558,0.009942112490534782,0.005868275184184313
1758440525637353500,5.175353515625,0.0010695254895836115,0.01612197794020176,0.0015108112711459398
1758440525647324400,5.185324462890625,-0.003500725142657757,0.01702825166285038,-0.006956975441426039
1758440525657294600,5.195294677734375,-0.01110538188368082,0.011682488955557346,-0.01398665551096201
1758440525667265500,5.205265625,-0.015429290011525154,-0.00714606000110507,-0.017956629395484924
1758440525677235500,5.2152353515625,-0.016279904171824455,-0.017943579703569412,-0.014966432936489582
1758440525687206400,5.225206298828125,-0.015490276739001274,-0.011472631245851517,-0.006561229936778545
1758440525697176600,5.235176513671875,-0.011480887420475483,0.005041630007326603,0.005832589231431484
1758440525707147300,5.245147216796875,-0.0070949275977909565,0.01936650648713112,0.02076440118253231
1758440525717117200,5.2551171875,0.0027358653023838997,0.026563966646790504,0.02803722769021988
1758440525727088400,5.26508837890625,0.0033505228348076344,0.023900272324681282,0.025355957448482513
1758440525737058300,5.275058349609375,0.003120692213997245,0.0138431116938591,0.01728125289082527
1758440525747029200,5.285029296875,0.006592655088752508,0.007799866143614054,0.007619836367666721
1758440525756999400,5.29499951171875,0.008311193436384201,0.005819006823003292,0.0011033476330339909
1758440525766970400,5.304970458984375,0.005126585252583027,0.0019355855183675885,0.002748914761468768
1758440525776940300,5.314940185546875,-0.0009432916413061321,0.0026351979468017817,0.01185319758951664
1758440525786910200,5.32491015625,-0.004186222795397043,0.010584733448922634,0.02275324985384941
1758440525796881400,5.33488134765625,-0.01124865934252739,0.01398931909352541,0.031328629702329636
1758440525806851300,5.344851318359375,-0.0129363052546978,0.010324276052415371,0.03153715282678604
1758440525816822300,5.354822265625,-0.012553608976304531,0.0028096348978579044,0.02371118776500225
1758440525826792400,5.36479248046875,-0.01170272845774889,-0.00956527516245842,0.009847304783761501
1758440525836763400,5.374763427734375,-0.011712050065398216,-0.017315873876214027,0.001743305241689086
1758440525846733300,5.3847333984375,-0.010396980680525303,-0.01569507271051407,-0.002995789982378483
1758440525856704500,5.39470458984375,-0.007680024020373821,-0.0028213527984917164,-0.00042344260145910084
1758440525866674400,5.40467431640625,-0.003207511268556118,0.0022913836874067783,0.006915696896612644
1758440525876645400,5.414645263671875,0.003347327234223485,0.0068152956664562225,0.008359928615391254
1758440525886615600,5.424615478515625,0.006482666824012995,0.0012663330417126417,0.009698966518044472
1758440525896586500,5.43458642578125,0.005155347287654877,-0.003437075763940811,0.0036610474344342947
1758440525906556400,5.444556396484375,0.005058940965682268,-0.007734085898846388,-0.0031521173659712076
1758440525916527600,5.454527587890625,-0.0006087986403144896,-0.009350624866783619,-0.004571315832436085
1758440525926497500,5.46449755859375,-0.004703408572822809,-0.0046634613536298275,0.0019233349012210965
1758440525936467500,5.474467529296875,-0.0059841228649020195,0.006191849708557129,0.012571185827255249
1758440525946438400,5.4844384765625,-0.005496498197317123,0.01570146530866623,0.02305338717997074
1758440525956408600,5.49440869140625,-0.0025798040442168713,0.018438661471009254,0.02851659618318081
1758440525966379500,5.504379638671875,-0.0022442457266151905,0.01569640450179577,0.020250942558050156
1758440525976349400,5.514349365234375,-0.0015395734226331115,0.007285077124834061,0.009517072699964046
1758440525986320400,5.5243203125,-0.003859453136101365,-0.005256547126919031,-0.004856273997575045
1758440525996290600,5.53429052734375,-0.006386792752891779,-0.018194450065493584,-0.017042633146047592
1758440526006261200,5.54426123046875,-0.00923238042742014,-0.02256842516362667,-0.018317755311727524
1758440526016231400,5.5542314453125,-0.004343349486589432,-0.016565393656492233,-0.009531453251838684
1758440526026202400,5.564202392578125,-0.0031047132797539234,0.004009921569377184,0.006385994143784046
1758440526036172300,5.57417236328125,0.0020812603179365396,0.024866467341780663,0.022698653861880302
1758440526046143200,5.584143310546875,0.0032772859558463097,0.03747919946908951,0.03244609013199806
1758440526056113400,5.594113525390625,0.00586800929158926,0.036556411534547806,0.027762921527028084
1758440526066084400,5.60408447265625,0.001184041379019618,0.024353543296456337,0.010949586518108845
1758440526076054300,5.61405419921875,-0.0014375743921846151,-0.0006261091912165284,-0.005946306046098471
1758440526086025500,5.624025390625,-0.003296727081760764,-0.01637604460120201,-0.0162412878125906
1758440526095995400,5.633995361328125,-0.0030157635919749737,-0.017602695152163506,-0.016235163435339928
1758440526105965300,5.64396533203125,-0.00806085579097271,-0.005706089083105326,-0.003585680155083537
1758440526115936500,5.6539365234375,-0.006283195689320564,0.017290040850639343,0.014664430171251297
1758440526125906400,5.663906494140625,-0.0015305186389014125,0.023515446111559868,0.027825240045785904
1758440526135877400,5.67387744140625,0.0009147958480753005,0.014485998079180717,0.02207787148654461
1758440526145847300,5.683847412109375,0.00022556974727194756,-0.0034706315491348505,0.013656689785420895
1758440526155818500,5.693818603515625,-0.002177666872739792,-0.019167035818099976,0.004716191906481981
1758440526165788400,5.703788330078125,-0.002017610939219594,-0.02310505323112011,0.004536694847047329
1758440526175759400,5.71375927734375,-0.0027302727103233337,-0.010914432816207409,0.006458165589720011
1758440526185729500,5.7237294921875,-0.005544701125472784,0.004804342519491911,0.008588162250816822
1758440526195700500,5.733700439453125,-0.006028864067047834,0.010529073886573315,0.013317936100065708
1758440526205670400,5.74367041015625,-0.0017480988753959537,0.008291219361126423,0.00980362854897976
1758440526215641600,5.7536416015625,-0.004553472623229027,0.003084473079070449,0.0004988100845366716
1758440526225611500,5.763611572265625,-0.007511179428547621,0.0017369136912748218,-0.010838799178600311
1758440526235582500,5.77358251953125,-0.010997523553669453,0.00427277572453022,-0.018024805933237076
1758440526245552400,5.783552490234375,-0.009006277658045292,0.008958607912063599,-0.010176205076277256
1758440526255522600,5.7935224609375,-0.004168113227933645,0.013671603985130787,0.0025891251862049103
1758440526265493500,5.803493408203125,0.005539907608181238,0.014475345611572266,0.01901337131857872
1758440526275463400,5.81346337890625,0.010601777583360672,0.008858473040163517,0.02828782983124256
1758440526285434400,5.823434326171875,0.0169675312936306,0.003439206164330244,0.03259815648198128
1758440526295404500,5.833404541015625,0.0169126708060503,0.004853877238929272,0.030705980956554413
1758440526305375200,5.843375244140625,0.011389806866645813,0.00820946041494608,0.027484355494379997
1758440526315345400,5.853345458984375,0.0062554990872740746,0.01318318024277687,0.02382730133831501
1758440526325316400,5.86331640625,-0.00022423815971706063,0.011630822904407978,0.01973748579621315
1758440526335286300,5.873286376953125,-0.007121026515960693,0.003293797606602311,0.011036671698093414
1758440526345257500,5.883257568359375,-0.011303787119686604,-0.012795424088835716,0.0068086376413702965
1758440526355227400,5.893227294921875,-0.014476144686341286,-0.020561201497912407,0.0015635418239980936
1758440526365198300,5.9031982421875,-0.016529973596334457,-0.010068346746265888,0.0004037352045997977
1758440526375168300,5.913168212890625,-0.015365640632808208,0.009645170532166958,0.0008719189208932221
1758440526385139500,5.923139404296875,-0.014133129268884659,0.029319006949663162,0.005246693734079599
1758440526395109400,5.933109375,-0.009941047988831997,0.022373482584953308,0.008902414701879025
1758440526405080300,5.943080322265625,-0.005854160524904728,0.0008178567513823509,0.005376389715820551
1758440526415050500,5.953050537109375,-0.0028727517928928137,-0.00743208359926939,0.0018674085149541497
1758440526425020400,5.9630205078125,0.0010703244479373097,0.0011507519520819187,0.002775546396151185
1758440526434991400,5.972991455078125,0.0013643373968079686,0.00823902152478695,0.009944243356585503
1758440526444961300,5.982961181640625,0.003733219113200903,0.0067849354818463326,0.01907116360962391
1758440526454932500,5.992932373046875,0.004942027851939201,0.014604242518544197,0.024525849148631096
1758440526464902400,6.00290234375,0.0009273127070628107,0.024889370426535606,0.020446153357625008
1758440526474873300,6.012873291015625,-0.005988916382193565,0.022038189694285393,0.0070680296048521996
1758440526484843300,6.02284326171875,-0.01224734541028738,0.0037172401789575815,-0.006366552785038948
1758440526494814200,6.032814208984375,-0.013275325298309326,-0.014635934494435787,-0.020835507661104202
1758440526504784100,6.0427841796875,-0.012778645381331444,-0.01630653440952301,-0.027367975562810898
1758440526514755300,6.05275537109375,-0.011069162748754025,-0.014123542234301567,-0.025850240141153336
1758440526524725200,6.062725341796875,-0.008137022145092487,-0.007279484532773495,-0.015548067167401314
1758440526534696200,6.0726962890625,-0.0029265477787703276,-0.003066629869863391,-0.00022290658671408892
1758440526544666000,6.082666015625,0.002924949862062931,0.005139634478837252,0.012340289540588856
1758440526554637300,6.09263720703125,0.006037652492523193,0.009956493973731995,0.020601680502295494
1758440526564607200,6.102607177734375,0.005191300064325333,0.004397145472466946,0.024413198232650757
1758440526574578000,6.112577880859375,0.005123655777424574,-0.005416869651526213,0.021817147731781006
1758440526584548400,6.12254833984375,0.0016671388875693083,-0.013056945987045765,0.01654275692999363
1758440526594518300,6.132518310546875,0.001246625673957169,-0.02064162865281105,0.009909356012940407
1758440526604489200,6.1424892578125,-0.0035268242936581373,-0.024094684049487114,0.004048271104693413
1758440526614459400,6.15245947265625,-0.006325806491076946,-0.02051273174583912,-0.0006876281695440412
1758440526624430000,6.16243017578125,-0.0065588331781327724,-0.011026818305253983,-0.0028240159153938293
1758440526634400300,6.172400146484375,-0.007103449665009975,-0.01034531556069851,0.0016293219523504376
1758440526644371200,6.18237109375,-0.006257096771150827,-0.0028959212359040976,0.00729466462507844
1758440526654341000,6.192341064453125,-0.005822469014674425,0.0013156015193089843,0.01025370229035616
1758440526664312000,6.20231201171875,-0.0014194648247212172,0.00016831177345011383,0.008508799597620964
1758440526674282000,6.212281982421875,-0.00236328924074769,-0.0025041704066097736,0.0008293083519674838
1758440526684253200,6.222253173828125,-0.0030370689928531647,-0.0062701464630663395,-0.012968262657523155
1758440526694223000,6.23222314453125,-0.0025305356830358505,-0.008637962862849236,-0.019094599410891533
1758440526704194000,6.242194091796875,-0.00006817692337790504,-0.005302620120346546,-0.0117914117872715
1758440526714164200,6.252164306640625,0.005170793738216162,0.009974070824682713,0.001790975802578032
1758440526724135200,6.26213525390625,0.007879761047661304,0.029624205082654953,0.016643425449728966
1758440526734105000,6.27210498046875,0.005509813781827688,0.02893444523215294,0.029397303238511086
1758440526744076300,6.282076171875,0.0036932716611772776,0.017376327887177467,0.0274507999420166
1758440526754046200,6.292046142578125,-0.0006343649583868682,0.0021222729701548815,0.017529990524053574
1758440526764017200,6.30201708984375,-0.005007009021937847,-0.008608668111264706,0.0035121769178658724
1758440526773987000,6.311987060546875,-0.00571833923459053,-0.013981861993670464,-0.008213987573981285
1758440526783957200,6.321957275390625,-0.006458165589720011,-0.013362676836550236,-0.012349610216915607
1758440526793928200,6.33192822265625,-0.0041641187854111195,-0.0031878037843853235,-0.0060416474007070065
1758440526803898000,6.341898193359375,-0.0020756677258759737,0.00469541922211647,0.0006506102508865297
1758440526813869300,6.351869384765625,0.0009510148083791137,0.008637163788080215,0.0031486554071307182
1758440526823839200,6.361839111328125,-0.0017297230660915375,0.0054123420268297195,0.0009922938188537955
1758440526833810200,6.37181005859375,-0.007720237597823143,-0.009808422066271305,0.0015078817959874868
1758440526843780000,6.381780029296875,-0.006508499383926392,-0.016230368986725807,0.003192331176251173
1758440526853751300,6.391751220703125,-0.004364122170954943,-0.005573729984462261,0.007514375261962414
1758440526863721200,6.40172119140625,-0.0020178770646452904,0.016957944259047508,0.014170147478580475
1758440526873692200,6.411692138671875,-0.0007816377910785377,0.028616197407245636,0.019461847841739655
1758440526883662300,6.421662353515625,0.000883636821527034,0.0207526832818985,0.02293514274060726
1758440526893633000,6.431633056640625,-0.0035356127191334963,0.00011638013529591262,0.0136625487357378
1758440526903603200,6.441603271484375,-0.007760184817016125,-0.01378052681684494,-0.0006865629111416638
1758440526913574100,6.45157421875,-0.01019830908626318,-0.02304220199584961,-0.013826066628098488
1758440526923544000,6.4615439453125,-0.007384945638477802,-0.024091754108667374,-0.024325845763087273
1758440526933515000,6.471514892578125,-0.006231530569493771,-0.025843581184744835,-0.023335948586463928
1758440526943485200,6.481485107421875,0.0023813985753804445,-0.026758909225463867,-0.013608752749860287
1758440526953456000,6.4914560546875,0.009348760358989239,-0.01441249530762434,-0.0017353157745674253
1758440526963426000,6.501426025390625,0.009453688748180866,-0.003914047963917255,0.009430519305169582
1758440526973397200,6.511397216796875,0.006102367304265499,0.006143912672996521,0.01581571437418461
1758440526983367200,6.5213671875,0.003991545643657446,0.016588563099503517,0.01793239451944828
1758440526993337000,6.531337158203125,0.00007829693640815094,0.023244069889187813,0.014243118464946747
1758440527003308000,6.54130810546875,-0.006765494588762522,0.0214789267629385,0.014933142811059952
1758440527013278200,6.5512783203125,-0.0091157341375947,0.016053002327680588,0.007793208118528128
1758440527023249200,6.561249267578125,-0.01067874301224947,0.005306614562869072,0.0005440838285721838
1758440527033219000,6.571218994140625,-0.011004714295268059,-0.0035353463608771563,-0.007538876496255398
1758440527043190300,6.581190185546875,-0.012979447841644287,-0.006216084118932486,-0.01167583093047142
1758440527053160200,6.59116015625,-0.013892912305891514,-0.0008503473363816738,-0.007445665542036295
1758440527063131100,6.601131103515625,-0.009696569293737411,0.0029225528705865145,0.004451207350939512
1758440527073101000,6.61110107421875,-0.007368167862296104,0.009384713135659695,0.012174108065664768
1758440527083072300,6.621072265625,-0.005083175376057625,0.008168980479240417,0.019208049401640892
1758440527093042200,6.631042236328125,-0.0016279903938993812,0.0034551850985735655,0.024510402232408524
1758440527103013400,6.641013427734375,0.002246376359835267,0.008068579249083996,0.021570539101958275
1758440527112983300,6.6509833984375,0.0037143107037991285,0.022117020562291145,0.014418354257941246
1758440527122954200,6.660954345703125,0.004246410448104143,0.026149045675992966,0.00884835235774517
1758440527132924200,6.670924072265625,0.001600293442606926,0.019781161099672318,0.0034852789249271154
1758440527142895000,6.68089501953125,-0.0017124125733971596,0.007768973242491484,-0.00902944803237915
1758440527152865300,6.690865234375,-0.012499280273914337,-0.008529306389391422,-0.01847727783024311
1758440527162836000,6.7008359375,-0.019834425300359726,-0.012975986115634441,-0.0177539624273777
1758440527172806100,6.71080615234375,-0.01883121207356453,-0.0024884575977921486,-0.009362609125673771
1758440527182776300,6.7207763671875,-0.013935523107647896,0.015902800485491753,0.004433097783476114
1758440527192747000,6.7307470703125,-0.008342351764440536,0.031030885875225067,0.017840515822172165
1758440527202717200,6.74071728515625,0.002094576135277748,0.030461236834526062,0.025843314826488495
1758440527212688100,6.750688232421875,0.008576976135373116,0.02123391628265381,0.027109116315841675
1758440527222658000,6.760657958984375,0.009386577643454075,0.005106078926473856,0.023074692115187645
1758440527232629000,6.77062890625,0.004221642855554819,-0.013515808619558811,0.01847701147198677
1758440527242599200,6.78059912109375,0.00026764770154841244,-0.02484090067446232,0.016104402020573616
1758440527252570000,6.790570068359375,-0.00518757151439786,-0.023792946711182594,0.019167302176356316
1758440527262540000,6.8005400390625,-0.005092496518045664,-0.01563941314816475,0.02021658793091774
1758440527272511200,6.81051123046875,-0.005152684170752764,-0.0052205948159098625,0.018198978155851364
1758440527282481200,6.820481201171875,-0.004519917070865631,0.0021198762115091085,0.01949354074895382
1758440527292452000,6.8304521484375,-0.0015755260828882456,0.007289338391274214,0.01404897402971983
1758440527302422000,6.840422119140625,-0.005661081522703171,0.008812399581074715,0.006347378250211477
1758440527312393200,6.850393310546875,-0.004668254870921373,0.011510182172060013,-0.0012697952333837748
1758440527322363100,6.860363037109375,-0.0060384515672922134,0.007958590984344482,-0.006637129932641983
1758440527332334000,6.870333984375,-0.008685100823640823,0.001856223214417696,-0.009615343064069748
1758440527342304300,6.88030419921875,-0.008642223663628101,0.000461259507574141,-0.009020659141242504
1758440527352275200,6.890275146484375,-0.006424609571695328,-0.0019049590919166803,-0.007783354725688696
1758440527362245000,6.9002451171875,-0.007010238710790873,0.0015808524331077933,-0.0046211169101297855
1758440527372216300,6.91021630859375,-0.004918059334158897,-0.004550276789814234,0.0015358449891209602
1758440527382186200,6.920186279296875,-0.0028216191567480564,-0.003751861397176981,0.007499994244426489
1758440527392157200,6.9301572265625,-0.00043063313933089375,0.0000031957933970261365,0.009469668380916119
1758440527402127400,6.94012744140625,-0.003245860803872347,0.006622216198593378,0.015856727957725525
1758440527412097300,6.95009716796875,-0.004364388529211283,0.008708802983164787,0.020651215687394142
1758440527422068200,6.960068115234375,-0.007253119256347418,0.006740194279700518,0.024641430005431175
1758440527432038100,6.9700380859375,-0.011050254106521606,0.00959776621311903,0.0259288027882576
1758440527442009000,6.980009033203125,-0.009732255712151527,0.020683174952864647,0.02363954856991768
1758440527451979300,6.989979248046875,-0.0065436530858278275,0.030365629121661186,0.01215626485645771
1758440527461950000,6.999949951171875,-0.008253668434917927,0.02809049002826214,0.0004822984628845006
1758440527471920000,7.009920166015625,-0.009046225808560848,0.007862983271479607,-0.010180465877056122
1758440527481891300,7.019891357421875,-0.006908506155014038,-0.017776867374777794,-0.01942669413983822
1758440527491861200,7.029861328125,-0.007951666601002216,-0.03050358034670353,-0.02166241779923439
1758440527501832400,7.03983251953125,-0.005649097263813019,-0.020899156108498573,-0.013940316624939442
1758440527511802400,7.04980224609375,-0.0035430695861577988,-0.0016737966798245907,0.002281530061736703
1758440527521773300,7.059773193359375,-0.0009374326909892261,0.017234381288290024,0.023736221715807915
1758440527531743500,7.069743408203125,0.0008378304773941636,0.030373085290193558,0.038725823163986206
1758440527541714400,7.07971435546875,0.00065460498444736,0.03519154340028763,0.039804935455322266
1758440527551684400,7.089684326171875,0.0025217472575604916,0.03801795467734337,0.026098711416125298
1758440527561655600,7.099655517578125,-0.0011795139871537685,0.028110729530453682,0.005797701422125101
1758440527571625500,7.10962548828125,-0.0017177389236167073,0.0035899411886930466,-0.014786402694880962
1758440527581596400,7.119596435546875,-0.007791610434651375,-0.019644008949398994,-0.030536603182554245
1758440527591566300,7.12956640625,-0.01390090212225914,-0.025644376873970032,-0.036245621740818024
1758440527601537500,7.13953759765625,-0.016272712498903275,-0.025948243215680122,-0.030222617089748383
1758440527611507500,7.149507568359375,-0.01188062783330679,-0.019891150295734406,-0.018735870718955994
1758440527621477400,7.159477294921875,-0.005283445119857788,-0.010089385323226452,-0.006013950332999229
1758440527631448600,7.169448486328125,0.003091397462412715,0.001731587341055274,0.00276169809512794
1758440527641418500,7.17941845703125,0.010467554442584515,0.010951184667646885,0.005338838789612055
1758440527651389400,7.189389404296875,0.012092881835997105,0.012262525036931038,0.007166832685470581
1758440527661359400,7.199359375,0.009778860956430435,0.012050271034240723,0.0022897860035300255
1758440527671330600,7.20933056640625,0.005085838492959738,0.012777847237884998,-0.0057015614584088326
1758440527681300500,7.219300537109375,0.0038812910206615925,0.004986769054085016,-0.01143002137541771
1758440527691271400,7.229271484375,0.004078098572790623,-0.003287672298029065,-0.019781960174441338
1758440527701241600,7.23924169921875,-0.0006543386843986809,-0.012136291712522507,-0.02647262066602707
1758440527711212300,7.24921240234375,-0.009379120543599129,-0.020364128053188324,-0.02299319952726364
1758440527721182500,7.259182373046875,-0.010040383785963058,-0.011154383420944214,-0.008686166256666183
1758440527731153400,7.2691533203125,-0.008619853295385838,0.012322979047894478,0.006175870541483164
1758440527741123300,7.279123291015625,-0.007722101639956236,0.029271868988871574,0.009468869306147099
1758440527751094300,7.28909423828125,-0.0064975805580616,0.03549514338374138,0.00663526589050889
1758440527761064200,7.299064208984375,-0.00572925852611661,0.01531983446329832,0.0008442220860160887
1758440527771035400,7.309035400390625,0.0010327738709747791,-0.006626743823289871,-0.0007928230334073305
1758440527781005300,7.31900537109375,0.006912234704941511,-0.010102701373398304,-0.00512818293645978
1758440527790976500,7.3289765625,0.007379885762929916,0.0013994910987094045,-0.005949501879513264
1758440527800946400,7.338946533203125,0.009822270832955837,0.007712514605373144,-0.0025273398496210575
1758440527810917400,7.34891748046875,0.00737402681261301,0.005647233221679926,-0.0024224112275987864
1758440527820887300,7.35888720703125,0.003756654914468527,-0.0036434705834835768,-0.0018271948210895061
1758440527830858500,7.3688583984375,-0.002121207769960165,-0.0038956720381975174,-0.001746501075103879
1758440527840828400,7.378828369140625,-0.010097641497850418,0.0019952403381466866,0.00038269624928943813
1758440527850799400,7.38879931640625,-0.011490474455058575,0.011955196037888527,0.0013560815714299679
1758440527860769500,7.39876953125,-0.006959904916584492,0.022461365908384323,0.0004926847759634256
1758440527870739500,7.408739501953125,-0.007202252745628357,0.02051033452153206,-0.0037585191894322634
1758440527880710400,7.41871044921875,-0.004983839578926563,0.000835966260638088,-0.010367419570684433
1758440527890680300,7.428680419921875,-0.0030445256270468235,-0.014460965059697628,-0.013683321885764599
1758440527900651500,7.438651611328125,-0.00173717993311584,-0.012593822553753853,-0.01739710010588169
1758440527910621400,7.448621337890625,0.00005193164179218002,-0.002554770326241851,-0.018498316407203674
1758440527920592400,7.45859228515625,0.000603738590143621,0.0034852789249271154,-0.013905429281294346
1758440527930562600,7.4685625,-0.00021678130724467337,0.0013640711549669504,-0.007269630674272776
1758440527940533500,7.478533447265625,-0.0021230720449239016,0.0012748552253469825,0.00006178533658385277
1758440527950503400,7.48850341796875,-0.006652576383203268,0.00720571493729949,0.005657885689288378
1758440527960474400,7.498474365234375,-0.005342567339539528,0.01816409081220627,0.00884941779077053
1758440527970444500,7.508444580078125,-0.004713262431323528,0.017186444252729416,0.013804495334625244
1758440527980415200,7.518415283203125,-0.002969158347696066,0.006331399083137512,0.015111574903130531
1758440527990385400,7.528385498046875,-0.0021105550695210695,-0.005622199270874262,0.011727229692041874
1758440528000356400,7.5383564453125,-0.001757952617481351,-0.0025939189363271,0.0010410296963527799
1758440528010326300,7.548326171875,-0.004314054735004902,0.0012239888310432434,-0.009546101093292236
1758440528020297500,7.55829736328125,-0.007818507961928844,-0.001315068919211626,-0.017482852563261986
1758440528030267400,7.568267333984375,-0.009200156666338444,0.005104747135192156,-0.018279405310750008
1758440528040238300,7.57823828125,-0.014087323099374771,0.0030546458438038826,-0.014188523404300213
1758440528050208300,7.588208251953125,-0.014679876156151295,-0.0031827439088374376,-0.007173224352300167
1758440528060179500,7.598179443359375,-0.01227717287838459,-0.00350392097607255,-0.0018604843644425273
1758440528070149400,7.6081494140625,-0.009125853888690472,-0.0011507519520819187,0.008946890011429787
1758440528080120300,7.618120361328125,-0.005856291390955448,-0.006298109423369169,0.010338124819099903
1758440528090090500,7.628090576171875,-0.0028533106669783592,-0.006133259739726782,0.005650429055094719
1758440528100061400,7.6380615234375,-0.0009946906939148903,-0.00737402681261301,-0.00025486451340839267
1758440528110031400,7.64803125,-0.000017843178284238093,-0.00755032803863287,-0.003064233111217618
1758440528120002600,7.65800244140625,-0.0011664645280689,-0.0024865935556590557,-0.004988899454474449
1758440528129972500,7.667972412109375,-0.0016290555940940976,0.010039584711194038,-0.003983556292951107
1758440528139942400,7.6779423828125,-0.006762032397091389,0.02281397022306919,-0.0030860709957778454
1758440528149913300,7.687913330078125,-0.01082681491971016,0.024252874776721,-0.001853293739259243
1758440528159883500,7.697883544921875,-0.011303787119686604,0.01655021496117115,-0.002971821464598179
1758440528169854500,7.7078544921875,-0.011423629708588123,0.005051750224083662,-0.006102367304265499
1758440528179824400,7.717824462890625,-0.005742041394114494,-0.007134874816983938,-0.011344533413648605
1758440528189795600,7.727795654296875,-0.0037894118577241898,-0.0075724320486187935,-0.014254570007324219
1758440528199765500,7.737765625,-0.0024802018888294697,-0.00014274542627390474,-0.012282765470445156
1758440528209736400,7.747736328125,-0.0018913770327344537,0.0062307314947247505,-0.0092936335131526
1758440528219706400,7.757706298828125,-0.004343615844845772,0.01314989011734724,-0.0011598066193982959
1758440528229677300,7.76767724609375,-0.010451842099428177,0.020069848746061325,0.002389654517173767
1758440528239647500,7.7776474609375,-0.012764264829456806,0.019843213260173798,0.004114584065973759
1758440528249618200,7.7876181640625,-0.013618340715765953,0.01715129055082798,-0.003096990054473281
1758440528259588400,7.79758837890625,-0.01332592498511076,0.004693288821727037,-0.009953830391168594
1758440528269559300,7.807559326171875,-0.014872689731419086,-0.014523815363645554,-0.011778894811868668
1758440528279529200,7.817529296875,-0.0169715266674757,-0.02749500796198845,-0.012319782748818398
1758440528289500400,7.82750048828125,-0.01607617177069187,-0.03057202324271202,-0.005034972447901964
1758440528299470300,7.83747021484375,-0.012883841060101986,-0.026452912017703056,0.004057592246681452
1758440528309441300,7.847441162109375,-0.008579906076192856,-0.015927568078041077,0.008677377365529537
1758440528319411500,7.857411376953125,-0.0025710156187415123,-0.010420949198305607,0.009103749878704548
1758440528329382400,7.86738232421875,0.0002812298189383,-0.009553557261824608,-0.00023995080846361816
1758440528339352300,7.877352294921875,0.00199364242143929,-0.008977781981229782,-0.01629721373319626
1758440528349323500,7.887323486328125,0.0014383733505383134,-0.01432567648589611,-0.0330335833132267
1758440528359293400,7.89729345703125,0.0012183962389826775,-0.021685054525732994,-0.04019535705447197
1758440528369264400,7.907264404296875,0.0013451626291498542,-0.009078183211386204,-0.038486137986183167
1758440528379234300,7.917234375,0.0005131911602802575,0.010924287140369415,-0.02526967041194439
1758440528391698400,7.929698486328125,-0.002840527566149831,0.018282068893313408,0.0004644552827812731
1758440528401668400,7.93966845703125,-0.007140733767300844,0.020670924335718155,0.01537709217518568
1758440528411639600,7.9496396484375,-0.010635334067046642,0.010624680668115616,0.025302693247795105
1758440528421609500,7.959609375,-0.008762332610785961,0.00033396040089428425,0.025670476257801056
1758440528431580400,7.969580322265625,-0.007523430045694113,-0.008505071513354778,0.015368569642305374
1758440528441550600,7.979550537109375,-0.006166283041238785,-0.021862154826521873,0.001561677665449679
1758440528451520500,7.9895205078125,-0.0067788101732730865,-0.027834028005599976,-0.01133680995553732
1758440528461491500,7.999491455078125,-0.005224322900176048,-0.015781359747052193,-0.015919577330350876
1758440528471461400,8.00946142578125,-0.004488225560635328,0.006887733470648527,-0.013965616934001446
1758440528481432300,8.019432373046875,-0.005675462540239096,0.018274344503879547,-0.008650479838252068
1758440528491402800,8.02940283203125,-0.006952714640647173,0.019396068528294563,0.0007909588166512549
1758440528501374000,8.0393740234375,-0.008550611324608326,0.016565660014748573,0.004466387443244457
1758440528511343900,8.04934375,-0.009921073913574219,0.007174023427069187,0.0076280920766294
1758440528521314800,8.059314697265625,-0.01267185341566801,0.0022114890161901712,0.009882458485662937
1758440528531284700,8.06928466796875,-0.013167200610041618,-0.004793956410139799,0.008948753587901592
1758440528541256000,8.079255859375,-0.00993359088897705,-0.007672833278775215,0.003471430391073227
1758440528551225900,8.089225830078124,-0.009766876697540283,-0.0022503710351884365,-0.0007890945998951793
1758440528561196800,8.09919677734375,-0.00782569870352745,0.0029635655228048563,-0.0018322548130527139
1758440528571167000,8.1091669921875,-0.001210939371958375,0.00863476749509573,-0.0004921521758660674
1758440528581138000,8.119137939453125,-0.0004415521107148379,0.021740982308983803,-0.000011451592399680521
1758440528591107800,8.12910791015625,-0.0007038734620437026,0.03767920285463333,-0.004677576012909412
1758440528601079000,8.1390791015625,-0.0008250473183579743,0.041129060089588165,-0.01477708201855421
1758440528611049000,8.149049072265624,-0.0030064424499869347,0.02510002627968788,-0.02576262131333351
1758440528621020000,8.15902001953125,-0.0070674968883395195,-0.007509315386414528,-0.030674822628498077
1758440528630989800,8.16898974609375,-0.008086156100034714,-0.02786998078227043,-0.02400839701294899
1758440528640961000,8.1789609375,-0.004600876942276955,-0.024590564891695976,-0.009411877952516079
1758440528650931000,8.188930908203124,-0.0030061763245612383,-0.013469736091792583,0.017187776044011116
1758440528660902100,8.198902099609375,0.002133724745362997,0.006904511246830225,0.04349980503320694
1758440528670872000,8.2088720703125,0.0014900385867804289,0.025678465142846107,0.0645611509680748
1758440528680842800,8.2188427734375,0.003522296901792288,0.03104659914970398,0.06692550331354141
1758440528690813000,8.22881298828125,0.000570981705095619,0.02582627162337303,0.061102502048015594
1758440528700783900,8.238783935546875,-0.0010950918076559901,0.010510165244340897,0.04652409255504608
1758440528710753800,8.24875390625,-0.003285009181126952,-0.00404507527127862,0.029170934110879898
1758440528720724700,8.258724853515625,-0.007485346868634224,-0.013302222825586796,0.016228504478931427
1758440528730695000,8.26869482421875,-0.0059995693154633045,-0.017045030370354652,0.010040650144219398
1758440528740665900,8.278665771484375,-0.0023579627741128206,-0.010099506005644798,0.013486247509717941
1758440528750635800,8.2886357421875,0.0003478088474366814,0.0013158678775653243,0.020769460126757622
1758440528760607000,8.29860693359375,0.002941727638244629,0.011185009963810444,0.02484622783958912
1758440528770577000,8.308576904296874,0.004125502891838551,0.011092864908277988,0.02094549499452114
1758440528780547800,8.3185478515625,-0.0025073662400245667,-0.0001882854849100113,0.009345564991235733
1758440528790517800,8.328517822265624,-0.006428338121622801,-0.013139770366251469,-0.006697051227092743
1758440528800489000,8.338489013671875,-0.009729060344398022,-0.0343763493001461,-0.015362977050244808
1758440528810459000,8.348458984375,-0.010145312175154686,-0.03808639943599701,-0.01498161256313324
1758440528820429800,8.358429931640625,-0.009643306024372578,-0.015478026121854782,-0.0015134743880480528
1758440528830400000,8.36839990234375,-0.007044593803584576,0.006884271278977394,0.022049641236662865
1758440528840371000,8.378370849609375,-0.002930542454123497,0.01930738426744938,0.04144570976495743
1758440528850340900,8.3883408203125,0.0017086841398850083,0.013484649360179901,0.046726759523153305
1758440528860310800,8.398310791015625,0.0023694143164902925,-0.0008333030855283141,0.03830903768539429
1758440528870282000,8.408281982421874,0.004825381562113762,-0.015240471810102463,0.022063490003347397
1758440528880252000,8.418251953125,0.0024714134633541107,-0.02767397277057171,0.0051873051561415195
1758440528890223000,8.42822314453125,-0.0007171892793849111,-0.028841767460107803,-0.0021547635551542044
1758440528900193000,8.438193115234375,0.0013395700370892882,-0.016948623582720757,0.0003075950953643769
1758440528910164000,8.4481640625,0.0020687435753643513,-0.0005435511702671647,0.0033992587123066187
1758440528920134000,8.4581337890625,0.0005957491230219603,0.0010178601369261742,0.007755924016237259
1758440528930105000,8.46810498046875,-0.0034993935842067003,-0.014737134799361229,0.009469668380916119
1758440528940075000,8.478074951171875,-0.008227303624153137,-0.028271319344639778,0.0037558560725301504
1758440528950046000,8.4880458984375,-0.015271364711225033,-0.030177609995007515,-0.011235077865421772
1758440528960016100,8.49801611328125,-0.02093537524342537,-0.030818631872534752,-0.02791578695178032
1758440528969986800,8.50798681640625,-0.015680160373449326,-0.027100326493382454,-0.037462953478097916
1758440528979957000,8.51795703125,-0.008805742487311363,-0.02111513912677765,-0.04133891686797142
1758440528989928000,8.527927978515624,-0.0020847225096076727,-0.016743293032050133,-0.03273264691233635
1758440528999897900,8.53789794921875,0.007126352749764919,-0.008859537541866302,-0.01895052194595337
1758440529009868800,8.547868896484376,0.011635617353022099,0.0036400086246430874,-0.008792959153652191
1758440529019838700,8.557838623046875,0.010203635320067406,0.013136042281985283,-0.0037768951151520014
1758440529029810000,8.567809814453126,0.004117513541132212,0.008246478624641895,-0.0025715483352541924
1758440529039779800,8.57777978515625,0.0010274475207552314,-0.005411277059465647,-0.002805640222504735
1758440529049750800,8.587750732421876,-0.0023281353060156107,-0.015188273973762989,-0.009754093363881111
1758440529059721000,8.597720947265625,-0.006237655878067017,-0.009015332907438278,-0.01581491529941559
1758440529069692000,8.60769189453125,-0.013117666356265545,0.0008444883860647678,-0.015626629814505577
1758440529079661800,8.617661865234375,-0.0126420259475708,0.0007291734800674021,-0.00962945818901062
1758440529089633000,8.627633056640626,-0.013831659220159054,-0.0015781891997903585,0.0014567491598427296
1758440529099603000,8.63760302734375,-0.011116567067801952,-0.0031579763162881136,0.010353305377066135
1758440529109574000,8.647573974609376,-0.010399111546576023,-0.00446958327665925,0.017005082219839096
1758440529119543800,8.657543701171875,-0.0062275356613099575,-0.00037736992817372084,0.02050980180501938
1758440529129515000,8.667514892578126,0.0013526194961741567,0.015460715629160404,0.020838435739278793
1758440529139485000,8.67748486328125,0.005800897255539894,0.022156966850161552,0.02461612969636917
1758440529149456100,8.6874560546875,0.009792976081371307,0.02106800116598606,0.030101709067821503
1758440529159426000,8.697426025390625,0.01104279700666666,0.021147096529603004,0.03347034379839897
1758440529169397000,8.70739697265625,0.011700864881277084,0.022715166211128235,0.03377154469490051
1758440529179367000,8.717366943359375,0.0054602790623903275,0.026706179603934288,0.027405790984630585
1758440529189337900,8.727337890625,-0.000023169501218944788,0.028062794357538223,0.01588735356926918
1758440529199308000,8.73730810546875,-0.00367143377661705,0.03585440292954445,-0.0017153420485556126
1758440529209278700,8.74727880859375,-0.009826265275478363,0.03507383167743683,-0.023991085588932037
1758440529219249000,8.757248779296875,-0.012754145078361034,0.017557954415678978,-0.04231097176671028
1758440529229219800,8.7672197265625,-0.01552356593310833,-0.00509808911010623,-0.05022934824228287
1758440529239189800,8.777189697265625,-0.015663115307688713,-0.01769031397998333,-0.04736698418855667
1758440529249161000,8.787160888671876,-0.011228952556848526,-0.01588788628578186,-0.027092870324850082
1758440529259131000,8.797130859375,-0.0034519892651587725,-0.009737581945955753,0.002424808219075203
1758440529269101800,8.807101806640626,0.0023188143968582153,0.006828078534454107,0.034449584782123566
1758440529279071700,8.81707177734375,0.007054447196424007,0.024986842647194862,0.05341768637299538
1758440529289043000,8.82704296875,0.010908573865890503,0.030112095177173615,0.05916984751820564
1758440529299012900,8.837012939453125,0.008934373036026955,0.028956018388271332,0.04934757575392723
1758440529308983800,8.84698388671875,0.001184574095532298,0.018126806244254112,0.02756238542497158
1758440529318954000,8.8569541015625,-0.006571616046130657,0.00458809407427907,0.0033803503029048443
1758440529328925000,8.866925048828126,-0.013806093484163284,-0.009417204186320305,-0.014217285439372063
1758440529338894800,8.876894775390625,-0.016563264653086662,-0.017346233129501343,-0.025320803746581078
1758440529348864800,8.88686474609375,-0.018969163298606873,-0.0163041390478611,-0.023437947034835815
1758440529358836000,8.8968359375,-0.01374936755746603,-0.001201884588226676,-0.0102004399523139
1758440529368806000,8.906805908203125,-0.006447513122111559,0.014420484192669392,0.007044327445328236
1758440529378777000,8.916777099609375,0.0014985607704147696,0.02094709314405918,0.023095199838280678
1758440529388747000,8.9267470703125,0.008737565018236637,0.02377190813422203,0.03227218613028526
1758440529398718000,8.936718017578125,0.009949036873877048,0.016324644908308983,0.029563218355178833
1758440529408687900,8.94668798828125,0.009003082290291786,0.012666260823607445,0.018250908702611923
1758440529418659000,8.9566591796875,0.001181378262117505,0.01492302305996418,0.008695753291249275
1758440529428629000,8.96662890625,-0.002261556452140212,0.015218367800116539,-0.00008096009696600959
1758440529438600000,8.976599853515625,-0.005934854503720999,0.015804795548319817,-0.0036187032237648964
1758440529448570000,8.986570068359375,-0.008400142192840576,0.029154157266020775,-0.007100253831595182
1758440529458540800,8.996540771484375,-0.007095193490386009,0.03545786067843437,-0.012752546928822994
1758440529468511000,9.006510986328125,-0.012161324732005596,0.023576699197292328,-0.018425611779093742
1758440529478482000,9.01648193359375,-0.011988486163318157,0.010832673870027065,-0.021260812878608704
1758440529488451600,9.02645166015625,-0.011747736483812332,-0.0025718146935105324,-0.018931612372398376
1758440529498422500,9.036422607421875,-0.0051657333970069885,-0.00640783179551363,-0.010481136851012707
1758440529508392400,9.046392333984375,-0.0006263754912652075,0.011890214867889881,-0.0059875850565731525
1758440529518363400,9.05636328125,0.00017710021347738802,0.0329587496817112,0.0008727178792469203
1758440529528333600,9.06633349609375,0.0020445086993277073,0.03325702250003815,0.013015933334827423
1758440529538304500,9.076304443359374,0.0003020024741999805,0.018759306520223618,0.02299346588551998
1758440529548274400,9.0862744140625,-0.0008053398923948407,0.003382480936124921,0.02700924687087536
1758440529558245600,9.09624560546875,-0.0016932378057390451,-0.006184126250445843,0.029574137181043625
1758440529568215600,9.106215576171875,-0.0018040252616629004,-0.020971594378352165,0.030599720776081085
1758440529578186500,9.1161865234375,-0.002635730430483818,-0.03081304021179676,0.028721926733851433
1758440529588156400,9.126156494140625,-0.002567020943388343,-0.032471656799316406,0.023209182545542717
1758440529598127600,9.136127685546874,-0.004508731886744499,-0.02485634759068489,0.020683174952864647
1758440529608097500,9.14609765625,-0.0018226674292236567,-0.010974886827170849,0.015174691565334797
1758440529618068500,9.156068359375,-0.0006125270738266408,0.0024953819811344147,0.007091199047863483
1758440529628038700,9.16603857421875,0.0027499801944941282,0.0028597023338079453,-0.002847185591235757
1758440529638009600,9.176009521484374,0.003334543900564313,-0.007664843928068876,-0.013672136701643467
1758440529647979500,9.1859794921875,0.002703641075640917,-0.018087923526763916,-0.018014952540397644
1758440529657950700,9.19595068359375,-0.0000010652644277797663,-0.015300925821065903,-0.018613364547491074
1758440529667920600,9.205920654296875,-0.0020903151016682386,0.0003246393462177366,-0.009394566528499126
1758440529677891600,9.2158916015625,-0.003079413203522563,0.01429265271872282,0.0015835155500099063
1758440529687861800,9.22586181640625,-0.00666429428383708,0.017140638083219528,0.014412228949368
1758440529697832700,9.235832763671874,-0.011858790181577206,0.01477841380983591,0.025405224412679672
1758440529707802600,9.245802734375,-0.012267318554222584,0.008753810077905655,0.03273877128958702
1758440529717773600,9.255773681640624,-0.010537595488131046,0.006941529456526041,0.03038373775780201
1758440529727743700,9.26574365234375,-0.007892011664807796,-0.00037470675306394696,0.021747639402747154
1758440529737714400,9.27571435546875,-0.007843009196221828,-0.004222708288580179,0.006559898145496845
1758440529747684400,9.285684326171875,-0.0065447185188531876,-0.005507949739694595,-0.0035241609439253807
1758440529757655600,9.295655517578124,-0.006170011591166258,-0.004150802735239267,-0.007932757958769798
1758440529767625500,9.30562548828125,-0.008868859149515629,-0.003683684393763542,-0.00743075180798769
1758440529777596400,9.315596435546874,-0.007909854874014854,0.0016343819443136454,0.00290364446118474
1758440529787566600,9.325566650390625,-0.008829710073769093,0.0116737000644207,0.012466256506741047
1758440529797537500,9.33553759765625,-0.0032951291650533676,0.022216621786355972,0.017490576952695847
1758440529807507500,9.345507568359375,0.0016618125373497605,0.025743979960680008,0.019099125638604164
1758440529817478700,9.355478759765624,0.0035715652629733086,0.022719427943229675,0.019930565729737282
1758440529827448600,9.365448486328125,0.0003888215287588537,0.01619441621005535,0.01595339924097061
1758440529837419500,9.37541943359375,-0.0043563987128436565,0.014220214448869228,0.011804195120930672
1758440529847389400,9.385389404296875,-0.010453972034156322,0.013715279288589954,0.006514891050755978
1758440529857360600,9.395360595703124,-0.011771705001592636,0.007425958290696144,-0.0019715381786227226
1758440529867330600,9.40533056640625,-0.014538195915520191,-0.006627542432397604,-0.004807271994650364
1758440529877301800,9.4153017578125,-0.011493937112390995,-0.012249208986759186,-0.005690376274287701
1758440529887271700,9.425271728515625,-0.009345298632979393,-0.00606481684371829,-0.0023001721128821373
1758440529897242600,9.43524267578125,-0.008900283835828304,0.010359430685639381,0.0013749900972470641
1758440529907212500,9.445212646484375,-0.00355851580388844,0.025242239236831665,0.006843524985015392
1758440529917183700,9.455183837890624,-0.0005850964807905257,0.023574834689497948,0.004787564743310213
1758440529927153700,9.465153564453125,0.0012948289513587952,0.016580041497945786,-0.0020487697329372168
1758440529937124600,9.47512451171875,0.0013856426812708378,0.0015994944842532277,-0.008895490318536758
1758440529947094800,9.4850947265625,0.0023305322974920273,-0.006678142584860325,-0.007291468791663647
1758440529957065500,9.4950654296875,0.004340952727943659,0.004825115203857422,-0.003628823207691312
1758440529967035600,9.50503564453125,0.001788046327419579,0.013043896295130253,0.0003944141499232501
1758440529977006600,9.515006591796874,-0.0027292075101286173,0.009751164354383945,0.003890878288075328
1758440529986976500,9.5249765625,-0.006194246467202902,0.005530053749680519,-0.0006532734259963036
1758440529996947500,9.534947509765624,-0.00643765926361084,-0.0010892328573390841,-0.007099454756826162
1758440530006917400,9.54491748046875,-0.010448645800352097,-0.0008663262706249952,-0.0075663067400455475
1758440530016888600,9.554888671875,-0.00923504400998354,0.010478473268449306,0.0013217268278822303
1758440530026858500,9.5648583984375,-0.007764978799968958,0.022052038460969925,0.013126187957823277
1758440530036829400,9.574829345703124,-0.0044293696992099285,0.025240374729037285,0.022956714034080505
1758440530046799600,9.584799560546875,-0.0020868529099971056,0.018810439854860306,0.016018647700548172
1758440530056770600,9.5947705078125,-0.0016495619202032685,0.004836833104491234,0.003210440743714571
1758440530066740500,9.604740478515625,-0.00535508431494236,-0.01044518407434225,-0.00669385539367795
1758440530076711700,9.614711669921874,-0.0036634444259107113,-0.011711250990629196,-0.0047177900560200214
1758440530086681600,9.624681640625,-0.00618252856656909,-0.0036570527590811253,0.004085022956132889
1758440530096652500,9.634652587890624,-0.006548180244863033,0.00965449120849371,0.014756042510271072
1758440530106622500,9.64462255859375,-0.007849134504795074,0.007967378944158554,0.022042984142899513
1758440530116593700,9.65459375,-0.00857164990156889,0.003959321416914463,0.02082511968910694
1758440530126563600,9.6645634765625,-0.0029499835800379515,0.01182230468839407,0.009871006943285465
1758440530136534800,9.67453466796875,-0.0038772961124777794,0.00893863383680582,-0.003231213428080082
1758440530146504700,9.684504638671875,-0.004774515051394701,-0.007406251039355993,-0.009883256629109383
1758440530156475600,9.6944755859375,-0.007467237301170826,-0.014230335131287575,-0.005495965480804443
1758440530166445600,9.704445556640625,-0.005014466121792793,-0.0035297537688165903,0.006001699715852737
1758440530176416500,9.71441650390625,-0.0034557178150862455,0.012076104059815407,0.015213574282824993
1758440530186386700,9.72438671875,-0.005695702508091927,0.013993846252560616,0.01932602748274803
1758440530196357400,9.734357421875,-0.009119728580117226,0.00227860058657825,0.020298080518841743
1758440530206327600,9.74432763671875,-0.009874468669295311,-0.011868909932672977,0.015274027362465858
1758440530216298500,9.754298583984376,-0.009297095239162445,-0.01341940276324749,0.010999920777976513
1758440530226268400,9.764268310546875,-0.003614442190155387,-0.00045540055725723505,0.012101403437554836
1758440530236239600,9.774239501953126,0.0006777744856663048,0.009998838417232037,0.017764883115887642
1758440530246209500,9.78420947265625,0.002254898427054286,0.008438492193818092,0.023010510951280594
1758440530256180500,9.794180419921876,-0.0013203952694311738,0.0008559399866499007,0.018204037100076675
1758440530266150400,9.804150390625,-0.0098640825599432,-0.01739310473203659,0.0052168662659823895
1758440530276121600,9.81412158203125,-0.014278005808591843,-0.028198348358273506,-0.005721268709748983
1758440530286091500,9.824091552734375,-0.011857724748551846,-0.018787803128361702,-0.011710451915860176
1758440530296062500,9.8340625,-0.005496498197317123,-0.0033872744534164667,-0.013012205250561237
1758440530306032600,9.84403271484375,-0.0018618159228935838,0.009118396788835526,-0.010208695195615292
1758440530316003600,9.854003662109376,0.0000010652644277797663,0.012684902176260948,-0.007207578979432583
1758440530325973500,9.863973388671875,0.0003483414766378701,0.0080310283228755,-0.006726612336933613
1758440530335944700,9.87394482421875,-0.002127865795046091,-0.004825381562113762,-0.007171360310167074
1758440530345914600,9.88391455078125,-0.002927346620708704,-0.004324973560869694,-0.00780545873567462
1758440530355885600,9.893885498046876,-0.004145210143178701,0.004554005339741707,-0.002002430846914649
1758440530365855700,9.903855712890625,-0.0065740132704377174,0.012167450040578842,0.007803328335285187
1758440530375826700,9.91382666015625,-0.005606220569461584,0.016638098284602165,0.013020993210375309
1758440530385796600,9.923796630859375,-0.008539159782230854,0.015535017475485802,0.00881160143762827
1758440530395766500,9.9337666015625,-0.0119091235101223,0.0037473340053111315,-0.0023872575256973505
1758440530405737700,9.94373779296875,-0.012542955577373505,-0.010119745507836342,-0.005864014383405447
1758440530415708400,9.95370849609375,-0.009496832266449928,-0.021945778280496597,-0.0073143718764185905
1758440530425678600,9.9636787109375,-0.005817675497382879,-0.019333217293024063,-0.005697034299373627
1758440530435649500,9.9736494140625,-0.008655806072056293,-0.006661631166934967,0.003582484321668744
1758440530445619500,9.983619384765625,-0.005091697443276644,0.009754892438650131,0.01979980431497097
1758440530455589600,9.993589599609376,0.0015986956423148513,0.030970431864261627,0.028932316228747368
1758440530465560600,10.003560546875,0.00003009372085216455,0.041961297392845154,0.02911847084760666
1758440530475531500,10.013531494140626,-0.0025124261155724525,0.0327339768409729,0.021824872121214867
1758440530485501400,10.02350146484375,-0.0029971215408295393,0.015472433529794216,0.01251951977610588
1758440530495472400,10.033472412109376,-0.007299990858882666,-0.0028370653744786978,0.000978978001512587
1758440530505442600,10.043442626953125,-0.010039584711194038,-0.0222640261054039,-0.007131945341825485
1758440530515413500,10.05341357421875,-0.01323750801384449,-0.02743135765194893,-0.009517605416476727
1758440530525383400,10.063383544921875,-0.010105364955961704,-0.0220901221036911,-0.004312722943723202
1758440530535353300,10.073353271484375,-0.006500510033220053,-0.010188455693423748,0.00914689339697361
1758440530545324500,10.083324462890625,-0.0017691379180178046,0.01350329164415598,0.017245300114154816
1758440530555295500,10.09329541015625,0.0007273092633113265,0.026439329609274864,0.021683191880583763
1758440530565265400,10.103265380859375,0.00022130868455860764,0.028189294040203094,0.02219238691031933
1758440530575236600,10.113236572265626,-0.00022210762836039066,0.02323581464588642,0.016324378550052643
1758440530585206500,10.12320654296875,-0.0009949569357559085,0.015592275187373161,0.0043681166134774685
1758440530595176400,10.133176513671875,-0.0025893915444612503,0.006343383342027664,-0.007873902097344398
1758440530605147600,10.143147705078125,-0.0028509139083325863,-0.009005479514598846,-0.018016017973423004
1758440530615118600,10.15311865234375,-0.007227286696434021,-0.016504408791661263,-0.019292471930384636
1758440530625088500,10.163088623046875,-0.004735366906970739,-0.008320514112710953,-0.01417520735412836
1758440530635058700,10.17305859375,-0.002749713836237788,0.007482417393475771,-0.005057076457887888
1758440530645029600,10.183029541015625,-0.00367143377661705,0.017977135255932808,0.006619819439947605
1758440530654999600,10.19299951171875,-0.0036341496743261814,0.023811589926481247,0.01649002730846405
1758440530664970800,10.202970703125,-0.006742857396602631,0.0276808962225914,0.018212294206023216
1758440530674941400,10.21294140625,-0.00806218758225441,0.024357803165912628,0.01768924854695797
1758440530684911600,10.22291162109375,-0.007771104108542204,0.013674266636371613,0.012865731492638588
1758440530694881500,10.232881591796875,-0.008127967827022076,0.0062395199202001095,0.0075905416160821915
1758440530704852500,10.2428525390625,-0.006956176832318306,0.004013117402791977,-0.0022740731947124004
1758440530714823400,10.252823486328126,-0.006733536254614592,-0.00020506340661086142,-0.001463673310354352
1758440530724793300,10.26279345703125,-0.006512760184705257,0.00030892668291926384,0.004680771846324205
1758440530734764500,10.2727646484375,-0.0020213392563164234,0.008501875214278698,0.010269948281347752
1758440530744734500,10.282734375,0.0004471447318792343,0.01714196801185608,0.01781308464705944
1758440530754705400,10.292705322265626,0.001333178486675024,0.02184564433991909,0.015022891573607922
1758440530764675600,10.302675537109375,-0.0004713795206043869,0.023672040551900864,0.012209261767566204
1758440530774646500,10.312646484375,0.0008807073463685811,0.021314077079296112,0.0016596820205450058
1758440530784616400,10.322616455078125,0.00042637207661755383,0.013497965410351753,-0.0021113541442900896
1758440530794587600,10.332587646484376,-0.0005914880894124508,0.002490854589268565,-0.007779093459248543
1758440530804557600,10.3425576171875,-0.00621022516861558,-0.011390872299671173,-0.008536762557923794
1758440530814527500,10.352527587890625,-0.0059745353646576405,-0.019221365451812744,-0.001181378262117505
1758440530824498400,10.36249853515625,-0.0073021212592720985,-0.010807107202708721,0.009490174241364002
1758440530834469600,10.3724697265625,-0.002935868687927723,0.006849650293588638,0.01624235324561596
1758440530844439600,10.382439453125,-0.0012370382901281118,0.014652712270617485,0.02009914256632328
1758440530854410800,10.39241064453125,0.0011281149927526712,0.005794506054371595,0.01852814480662346
1758440530864380700,10.402380615234375,0.0013608753215521574,-0.0009512811084277928,0.012943228706717491
1758440530874350600,10.4123505859375,0.0009885653853416443,-0.0041638524271547794,0.0054762582294642925
1758440530884321500,10.422321533203124,-0.0009933591354638338,-0.00315930787473917,-0.0034016557037830353
1758440530894292500,10.43229248046875,-0.0016460998449474573,0.004862132947891951,-0.014867362566292286
1758440530904262700,10.4422626953125,-0.0075639099813997746,0.0026322684716433287,-0.021168135106563568
1758440530914233300,10.4522333984375,-0.01350702065974474,-0.0051958272233605385,-0.02087891660630703
1758440530924203500,10.46220361328125,-0.015282816253602505,-0.013790380209684372,-0.01787273958325386
1758440530934174500,10.472174560546875,-0.012459333054721355,-0.015207182615995407,-0.007985488511621952
1758440530944144400,10.482144287109374,-0.006070409435778856,-0.006588127929717302,0.0031736891251057386
1758440530954115600,10.492115478515625,-0.00011851066665258259,0.003154247999191284,0.011889682151377201
1758440530964085500,10.50208544921875,0.007355384528636932,0.014881211332976818,0.0139594916254282
1758440530974056400,10.512056396484375,0.011178884655237198,0.013075588271021843,0.01149553433060646
1758440530984026400,10.5220263671875,0.010839065536856651,0.0070576430298388,0.005243497900664806
1758440530993997600,10.53199755859375,0.007210242096334696,0.0034056503791362047,-0.0015068164793774486
1758440531003967500,10.541967529296874,0.003823234001174569,0.00108257494866848,-0.007700796704739332
1758440531013938400,10.5519384765625,-0.0008772452711127698,-0.008616391569375992,-0.009529856033623219
1758440531023908600,10.56190869140625,-0.011479821987450123,-0.022710105404257774,-0.003742007538676262
1758440531033879600,10.571879638671875,-0.013314739800989628,-0.008860602974891663,-0.002263420494273305
1758440531043849500,10.581849365234374,-0.011213239282369614,0.00942066591233015,0.005771602503955364
1758440531053820700,10.591820556640625,-0.015078019350767136,0.024025974795222282,0.014417821541428566
1758440531063790600,10.60179052734375,-0.016625314950942993,0.0405716598033905,0.014609302394092083
1758440531073761500,10.611761474609375,-0.012615926563739777,0.037701040506362915,0.007749532349407673
1758440531083731700,10.621731689453124,-0.011414041742682457,0.017783524468541145,-0.002880475018173456
1758440531093702700,10.63170263671875,-0.013209811411798,-0.00788668543100357,-0.011700864881277084
1758440531103672600,10.641672607421874,-0.008007326163351536,-0.01452940795570612,-0.018428541719913483
1758440531113643500,10.6516435546875,-0.0036826191935688257,-0.011216701939702034,-0.011298194527626038
1758440531123613700,10.66161376953125,-0.0008426241693086922,0.0018426411552354693,0.0003259709046687931
1758440531133584400,10.67158447265625,-0.0006463492172770202,0.014637266285717487,0.01732546091079712
1758440531143554600,10.681554443359374,0.0007555388147011399,0.020981714129447937,0.03148761764168739
1758440531153525500,10.691525390625,-0.001577123999595642,0.021582257002592087,0.036789972335100174
1758440531163495400,10.701495361328124,-0.0049337721429765224,0.015658587217330933,0.03197284787893295
1758440531173466400,10.71146630859375,-0.005563077051192522,0.010977017693221569,0.027829233556985855
1758440531183436500,10.7214365234375,-0.005574262235313654,0.002669286448508501,0.016138223931193352
1758440531193407500,10.731407470703125,-0.005923402961343527,-0.002516953507438302,0.002104163635522127
1758440531203377400,10.74137744140625,-0.008582568727433681,-0.007951400242745876,-0.009270995855331421
1758440531213348600,10.7513486328125,-0.008612662553787231,-0.01125105656683445,-0.013322729617357254
1758440531223318500,10.761318603515624,-0.0035720979794859886,-0.008051535114645958,-0.015241803601384163
1758440531233289500,10.77128955078125,-0.004140949342399836,-0.005088502075523138,-0.013395700603723526
1758440531243259400,10.78125927734375,-0.006579872220754623,-0.0038184402510523796,-0.010220945812761784
1758440531253230600,10.791230712890625,-0.004453337751328945,-0.001157143502496183,-0.0033891387283802032
1758440531263200500,10.801200439453124,-0.004821919370442629,0.004471713677048683,0.003468234557658434
1758440531273171500,10.81117138671875,-0.007441138383001089,0.00890827365219593,0.010949053801596165
1758440531283141600,10.8211416015625,-0.005133509170264006,0.0062975771725177765,0.016873521730303764
1758440531293112600,10.831112548828125,-0.004013650119304657,0.007816644385457039,0.011167699471116066
1758440531303082500,10.84108251953125,0.0010048106778413057,0.010395382530987263,0.0030429279431700706
1758440531313053700,10.8510537109375,0.0013600763631984591,0.006388390902429819,-0.007686415687203407
1758440531323023600,10.861023681640624,-0.00011877698125317693,-0.0020391824655234814,-0.015046593733131886
1758440531332994600,10.87099462890625,-0.00021944446780253202,-0.00503923324868083,-0.017584586516022682
1758440531342964700,10.88096484375,-0.004021905828267336,0.0019265307346358895,-0.011718175373971462
1758440531352935700,10.890935791015625,-0.005114068277180195,0.013126454316079617,-0.004223507363349199
1758440531362905600,10.900905517578124,-0.0071005201898515224,0.019511383026838303,0.0020927118603140116
1758440531372876500,10.91087646484375,-0.005903162993490696,0.016528643667697906,0.0022953785955905914
1758440531382846700,10.9208466796875,-0.00196408131159842,-0.00126766471657902,0.0021949773654341698
1758440531392817400,10.9308173828125,-0.0008940231637097895,-0.0076177059672772884,-0.0014972290955483913
1758440531402787300,10.940787353515624,0.0010394317796453834,-0.011863850057125092,-0.002481267089024186
1758440531412758500,10.950758544921875,0.0014506238512694836,-0.010061955079436302,-0.0007374293054454029
1758440531422728400,10.960728515625,0.0018748653819784522,0.0020389161072671413,-0.0014207963831722736
1758440531432699400,10.970699462890625,-0.0015547533985227346,0.010627876967191696,-0.0026551715563982725
1758440531442669600,10.980669677734374,-0.004403004422783852,0.007652326952666044,-0.004653607495129108
1758440531452640500,10.990640625,-0.00848802737891674,0.0026024410035461187,-0.008394017815589905
1758440531462610400,11.0006103515625,-0.010289122350513935,0.0014974954538047314,-0.010210559703409672
1758440531472581600,11.01058154296875,-0.006943659856915474,-0.002332396572455764,-0.009937318973243237
1758440531482551600,11.020551513671874,-0.004370247479528189,-0.00902838259935379,-0.007845939137041569
1758440531492522000,11.03052197265625,-0.0013262542197480798,-0.014735803008079529,-0.0006314354832284153
1758440531502492200,11.0404921875,0.002894589677453041,-0.01739656738936901,0.006637929007411003
1758440531512463000,11.050463134765625,0.006280266214162111,-0.013880928047001362,0.013425261713564396
1758440531522433000,11.06043310546875,0.006440588738769293,-0.0022503710351884365,0.01722106523811817
1758440531532404200,11.070404296875,0.0028482507914304733,0.0011914982460439205,0.019409384578466415
1758440531542374100,11.0803740234375,-0.000437291048001498,-0.007820638827979565,0.024837972596287727
1758440531552345000,11.090344970703125,0.0015984292840585113,-0.0037736992817372084,0.0320090651512146
1758440531562315000,11.10031494140625,0.0070669641718268394,0.01642078533768654,0.028484905138611794
1758440531572286200,11.1102861328125,0.00686190091073513,0.029696376994252205,0.012114186771214008
1758440531582256000,11.120256103515626,0.005061337724328041,0.0200986098498106,-0.004038417246192694
1758440531592227000,11.13022705078125,0.00022983079543337226,-0.0006862966110929847,-0.020955881103873253
1758440531602197200,11.140197265625,-0.0062246061861515045,-0.01660827174782753,-0.032045550644397736
1758440531612168200,11.150168212890625,-0.010202303528785706,-0.012733638286590576,-0.03422295302152634
1758440531622138000,11.16013818359375,-0.00839694682508707,0.005846171174198389,-0.027270769700407982
1758440531632109000,11.170109130859375,-0.0012053466634824872,0.021268803626298904,-0.016099074855446815
1758440531642079200,11.180079345703126,0.0032418658956885338,0.028929652646183968,-0.013097425922751427
1758440531652050000,11.1900498046875,-0.0012551478575915098,0.011810586787760258,-0.00863157119601965
1758440531662020000,11.20002001953125,0.0013379721203818917,-0.015122493728995323,-0.005696235224604607
1758440531671991000,11.209990966796875,0.001966211711987853,-0.02027970552444458,-0.005432049743831158
1758440531681961000,11.2199609375,0.0017773937433958054,-0.0076272934675216675,0.0003427488263696432
1758440531691932000,11.229931884765625,0.0005968143814243376,0.008650213479995728,0.007745271548628807
1758440531701902000,11.239902099609376,0.00023861923546064645,0.01763278990983963,0.020566260442137718
1758440531711873000,11.249873046875,0.0009454221581108868,0.02171941101551056,0.027996480464935303
1758440531721843000,11.259843017578126,0.00006764429417671636,0.024409469217061996,0.024876054376363754
1758440531731814100,11.269814208984375,-0.0023209447972476482,0.022280538454651833,0.009681922383606434
1758440531741784000,11.2797841796875,-0.005440039094537497,0.011468370445072651,-0.007457117084413767
1758440531751755000,11.289755126953125,-0.008274175226688385,0.004522047471255064,-0.025072596967220306
1758440531761725200,11.29972509765625,-0.014061756432056427,0.0023076289799064398,-0.037525005638599396
1758440531771696000,11.309696044921875,-0.017767012119293213,-0.004145210143178701,-0.033253028988838196
1758440531781666000,11.319666015625,-0.015427425503730774,0.003311640815809369,-0.017039969563484192
1758440531791637200,11.32963720703125,-0.009782057255506516,0.024527180939912796,0.004990763962268829
1758440531801607200,11.339607177734376,-0.0000021305288555595325,0.0364842414855957,0.023316508159041405
1758440531811578000,11.349578125,0.004692223388701677,0.030607176944613457,0.02972141094505787
1758440531821548000,11.359548095703126,0.006271744146943092,0.011247861199080944,0.021938322111964226
1758440531831519200,11.369519287109375,0.0028447885997593403,-0.026673156768083572,0.007216900121420622
1758440531841489200,11.3794892578125,-0.0011653993278741837,-0.04836833104491234,-0.001374457380734384
1758440531851460000,11.389460205078125,-0.0026144252624362707,-0.03551352024078369,-0.00025273399660363793
1758440531861430300,11.39943017578125,-0.004040281753987074,-0.015537148341536522,0.01203695498406887
1758440531871401000,11.40940087890625,-0.00595589354634285,0.0011891013709828258,0.02467791549861431
1758440531881371100,11.41937109375,-0.005532184615731239,0.015221829526126385,0.031085748225450516
1758440531891342000,11.429342041015625,-0.0008157262345775962,0.019209913909435272,0.023208916187286377
1758440531901312000,11.43931201171875,-0.0018082864116877317,0.00803129468113184,0.007514108903706074
1758440531911283000,11.449282958984375,-0.0033630398102104664,-0.003763312939554453,-0.011958925053477287
1758440531921252900,11.4592529296875,-0.0029728866647928953,-0.014389059506356716,-0.025975141674280167
1758440531931224000,11.46922412109375,-0.003605387406423688,-0.023307453840970993,-0.028358403593301773
1758440531941194000,11.479194091796876,-0.0032735576387494802,-0.01786475069820881,-0.018140655010938644
1758440531951165000,11.4891650390625,-0.0013558153295889497,-0.00433136522769928,-0.004240285139530897
1758440531961135000,11.499135009765626,0.002103630919009447,0.012706208042800426,0.008866728283464909
1758440531971106000,11.50910595703125,0.003600327530875802,0.021631259471178055,0.016583237797021866
1758440531981076000,11.519075927734375,0.003894340479746461,0.018193384632468224,0.011840946972370148
1758440531991047200,11.529047119140625,0.0036389431916177273,0.008264588192105293,0.000005592638444795739
1758440532001017000,11.53901708984375,0.0011656655697152019,-0.007260575890541077,-0.012797554023563862
1758440532010988000,11.548988037109375,-0.000015978966985130683,-0.021556423977017403,-0.019039204344153404
1758440532020958200,11.558958251953126,-0.003710848744958639,-0.02395353652536869,-0.01733611337840557
1758440532030929200,11.56892919921875,-0.004222441930323839,-0.024641696363687515,-0.0018708707066252828
1758440532040899000,11.578899169921876,-0.0016490293201059103,-0.01570119895040989,0.016016783192753792
1758440532050870300,11.588870361328125,-0.0001661812566453591,0.005405418109148741,0.029107019305229187
1758440532060840200,11.598840087890625,0.00013448962999973446,0.019601663574576378,0.03521018475294113
1758440532070811100,11.60881103515625,-0.0011041465913876891,0.022001972422003746,0.028987975791096687
1758440532080781000,11.618781005859375,-0.0046570696868002415,0.008772452361881733,0.01031655352562666
1758440532090752000,11.628751953125,-0.007898136973381042,-0.004472246393561363,-0.009616941213607788
1758440532100723000,11.638722900390626,-0.007760184817016125,-0.011108843609690666,-0.024051539599895477
1758440532110692900,11.64869287109375,-0.009093097411096096,-0.015307850204408169,-0.025725336745381355
1758440532120664000,11.6586640625,-0.007764179725199938,-0.016800550743937492,-0.013456686399877071
1758440532130634000,11.668634033203125,-0.007199323270469904,-0.0021811288315802813,0.004543619230389595
1758440532140605000,11.67860498046875,-0.005411010701209307,0.014902782626450062,0.02611762098968029
1758440532150575000,11.6885751953125,-0.0016157397767528892,0.02852325327694416,0.04170483723282814
1758440532160546000,11.698546142578126,-0.00021544973424170166,0.03206152841448784,0.0405423678457737
1758440532170516000,11.708515869140625,-0.0012785836588591337,0.02285578101873398,0.025187645107507706
1758440532180487200,11.718487060546876,-0.004613926634192467,-0.0019478360190987587,0.002880208659917116
1758440532190457000,11.72845703125,-0.006441654171794653,-0.031242074444890022,-0.010586331598460674
1758440532200428000,11.738427978515626,-0.006238987669348717,-0.04093225300312042,-0.012703544460237026
1758440532210398000,11.74839794921875,-0.0062459115870296955,-0.019207250326871872,-0.0008375641773454845
1758440532220369200,11.758369140625,-0.0035055188927799463,0.01318078301846981,0.01727406121790409
