time,seconds_elapsed,z,y,x
1758447529641825500,0.023825439453125,1.1262222902566195,0.2095274243161082,-0.4813305414117872
1758447529651797500,0.033797607421875,1.309666886550188,0.19786212096363304,-0.5437076487392187
1758447529661770500,0.0437705078125,1.301809743309021,0.24573387920707462,-0.5346991069732233
1758447529671742500,0.053742431640625,1.1366180120646954,0.38976825613230465,-0.5194430125871673
1758447529681715500,0.063715576171875,0.8266314409166574,0.5095280235007404,-0.48783305517360565
1758447529691687700,0.073687744140625,0.3699310445010662,0.5645508225426078,-0.4288853743055835
1758447529701659400,0.083659423828125,-0.011017068576812743,0.6081415424659847,-0.4632740026522428
1758447529711632400,0.09363232421875,-0.16295535049438475,0.6233218682020902,-0.5349008400904014
1758447529721604600,0.1036044921875,-0.2002010853052139,0.6434069171145558,-0.5176613168021664
1758447529731577300,0.113577392578125,-0.20001696090996265,0.6412663979545236,-0.46006234712935984
1758447529741549600,0.123549560546875,-0.052366147053241725,0.6345917424961924,-0.4374110644580796
1758447529751522600,0.1335224609375,0.14791151061952112,0.6059209438070654,-0.4752449744204059
1758447529761494300,0.143494384765625,0.3310007176041603,0.5252367570251226,-0.46095293929353354
1758447529771467500,0.153467529296875,0.4819803836226463,0.4471142374247312,-0.39656518626343457
1758447529781439500,0.163439453125,0.4814554829657077,0.3756789405032992,-0.4148383634483441
1758447529791412500,0.17341259765625,0.40846623460054393,0.35290567542016504,-0.5194834907280281
1758447529801384400,0.183384521484375,0.24949381626248357,0.3679790336504578,-0.5295490672662854
1758447529811356700,0.193356689453125,0.04543605552911758,0.41128333784788845,-0.48082763339094814
1758447529821329700,0.20332958984375,-0.14091478359997273,0.4277943276658654,-0.3787693807993084
1758447529831301400,0.21330126953125,-0.2547556823134422,0.4390753078758716,-0.26209957880284634
1758447529841274600,0.223274658203125,-0.27040157973468304,0.44112084222882986,-0.15598814183026552
1758447529851246600,0.23324658203125,-0.2541647306829691,0.4025201856777072,-0.14758883627010508
1758447529861219300,0.24321923828125,-0.18847966785132883,0.3414572296887636,-0.17200044314479454
1758447529871191600,0.253191650390625,-0.11284896506667136,0.24711188956201074,-0.1460470867208205
1758447529881164500,0.26316455078125,0.02543897716104984,0.1441147486850619,-0.124138055517897
1758447529891136500,0.273136474609375,0.1329553490281105,0.12526654809117316,-0.09855018967175856
1758447529901109500,0.283109619140625,0.11956687514483928,0.12136369543373585,-0.10807718408759683
1758447529911081500,0.29308154296875,0.1012578959941864,0.1274552903071046,-0.17915663504237309
1758447529921054500,0.303054443359375,0.126201198592782,0.16279723732322454,-0.20813514797380192
1758447529931026400,0.3130263671875,0.08845569756627082,0.16632716501504183,-0.14494251387924886
1758447529940998700,0.32299853515625,0.012090250766277313,0.20784283223003147,-0.14953239895277656
1758447529950971400,0.332971435546875,-0.03201309485435486,0.24989918219298124,-0.19297102445382625
1758447529960943000,0.342943115234375,-0.0132236387103796,0.27522826923877,-0.17508998839166015
1758447529970916000,0.352916015625,0.07435352245569228,0.3147203216716647,-0.13151411897754295
1758447529980888000,0.36288818359375,0.28194296444654465,0.37577246400564907,-0.0818972067003604
1758447529990861000,0.372861083984375,0.49209436587989325,0.4116293748065829,-0.06188142363182269
1758447530000833000,0.3828330078125,0.5744482394397259,0.4273144351944327,-0.05256197101944126
1758447530010806000,0.392805908203125,0.5740595323830843,0.4178644698038697,-0.026133078638743607
1758447530020778200,0.4027783203125,0.5329097758710384,0.41299803281128405,0.009039320496749133
1758447530030751000,0.4127509765625,0.454209164121747,0.42397973781377074,-0.04260282313087955
1758447530040723200,0.42272314453125,0.3311906872183084,0.4084986755654216,-0.08288714931947179
1758447530050695200,0.432695068359375,0.2321346851825714,0.3309019334048033,-0.06495213631405494
1758447530060668000,0.44266796875,0.15777414846420287,0.23524667972326277,-0.05274719139323569
1758447530070640000,0.45264013671875,0.07963117059767245,0.16784955227673054,-0.07813484935900196
1758447530080613000,0.462613037109375,0.007761866173148155,0.09967442619502544,-0.05086551496563479
1758447530090585000,0.472585205078125,-0.04395195445120335,0.04392974261939525,-0.08561376127176917
1758447530100558000,0.48255810546875,-0.049749242553114886,0.02328589078038931,-0.14371110892076977
1758447530110530000,0.492530029296875,-0.08705050694346428,0.005510580115020275,-0.1269030358523596
1758447530120503300,0.50250341796875,-0.10392682294249533,0.023702070365846154,-0.07887058888818137
1758447530130475000,0.51247509765625,-0.05974573591053486,0.0299219677940011,0.00927182777810376
1758447530140448000,0.522447998046875,-0.010173018968105315,0.012552023059129714,0.09710512369628996
1758447530150420200,0.532420166015625,0.06188216341733932,-0.02077916865646839,0.17542862749518826
1758447530160392000,0.542391845703125,0.06684884591400624,-0.018806115017831325,0.237645374895446
1758447530170365200,0.552365234375,-0.00526069700717926,-0.029957915890216825,0.30629462129492313
1758447530180337200,0.562337158203125,-0.0027332243561744686,-0.053963645377755165,0.2914149407395161
1758447530190310000,0.572309814453125,0.09508709840476512,-0.07075315987616777,0.2524938565949909
1758447530200282000,0.5822822265625,0.12369593777358531,-0.05744885714501142,0.19910185535904018
1758447530210255000,0.592255126953125,0.1287029522806406,-0.034649580837786194,0.22781333311842752
1758447530220227000,0.60222705078125,0.08896130900084973,-0.021109131263196468,0.2787122388970107
1758447530230200000,0.612199951171875,0.034787235742807385,-0.007536532984673976,0.2835003316900693
1758447530240172000,0.622172119140625,-0.036678748577833174,0.0019297990188002585,0.3142843048745766
1758447530250145300,0.632145263671875,-0.02543547002971172,-0.024066519764065743,0.33262448288109153
1758447530260117000,0.642116943359375,0.13618249438107013,-0.017720657868683338,0.38609442645777015
1758447530270089200,0.652089111328125,0.25331600489914413,0.010296060825884341,0.4043379391567781
1758447530280062200,0.662062255859375,0.31652854013741016,-0.03534486962556839,0.352665473456122
1758447530290034200,0.6720341796875,0.309812968146801,-0.07148030510693788,0.3010192016426474
1758447530300007200,0.682007080078125,0.25451895094811916,-0.03866553848087787,0.2814628345130943
1758447530309979100,0.691979248046875,0.14755436774492262,0.0037210663497447964,0.3021367344304919
1758447530319952100,0.7019521484375,-0.011297639083862304,0.04458265357017517,0.3363790861742571
1758447530329924000,0.711924072265625,-0.12888006241321562,0.05222440049499273,0.31369696997329594
1758447530339897000,0.72189697265625,-0.21196751094460486,0.08288491169661283,0.2813238096348941
1758447530349869000,0.731869140625,-0.2703109788417816,0.11046937645375728,0.31329836257714777
1758447530359842000,0.741842041015625,-0.2938181111574173,0.10562222868353127,0.3515753766644746
1758447530369814300,0.751814208984375,-0.3390858243823051,0.08327069614380597,0.3751233889797702
1758447530379787300,0.761787353515625,-0.35428163994848727,0.10040215594768524,0.368274034541659
1758447530389759000,0.771759033203125,-0.3868751650393009,0.1613105058968067,0.3175374979842454
1758447530399731200,0.781731201171875,-0.3248106307923794,0.19407617268413305,0.25598023740602655
1758447530409704200,0.7917041015625,-0.2013040781110525,0.16098931111842393,0.2638516831671819
1758447530419676200,0.80167626953125,-0.05813479358255863,0.08746727105081081,0.22330992075195535
1758447530429649200,0.811649169921875,0.09899053558409214,0.019551672688126562,0.17113631886243819
1758447530439621000,0.82162109375,0.15979250254929064,0.002128244200348854,0.145890599251166
1758447530449594000,0.831593994140625,0.160858670476079,0.012936638462543486,0.12278172727180645
1758447530459566000,0.841566162109375,0.2084627176940441,-0.009788403564691543,0.04602308903629891
1758447530469539000,0.8515390625,0.2513052495986223,-0.049985973918437954,0.009717817979934625
1758447530479511000,0.861510986328125,0.30939152786433693,-0.07729016042947769,-0.003611473062005825
1758447530489484000,0.871484130859375,0.4015577703863382,-0.10927636727690695,-0.027525642675417475
1758447530499456300,0.881456298828125,0.48519817662537096,-0.13495207580327986,-0.02405136329412926
1758447530509428000,0.891427978515625,0.45683659001588817,-0.14463877255916593,-0.0016628140791086479
1758447530519401000,0.90140087890625,0.3478092290639877,-0.15288433059602974,-0.032226048051868565
1758447530529373200,0.911373291015625,0.24713468591570853,-0.1278045421361923,-0.08787201592680066
1758447530539346200,0.92134619140625,0.08183423359990119,-0.076472706566751,-0.08749392159571871
1758447530549318100,0.931318115234375,-0.03329319779276848,-0.03118511959761381,-0.08050766117125749
1758447530559291100,0.941291015625,-0.04397475080490112,0.020158114148676395,-0.0900653064536862
1758447530569263000,0.95126318359375,0.029464579415321348,0.09693389531522989,-0.05690775427194312
1758447530579236000,0.961236083984375,0.06793371854126452,0.12475918309092521,-0.013028454064996912
1758447530589208000,0.9712080078125,0.04001052334904671,0.1334799574241042,0.02092163673392497
1758447530599181000,0.98118115234375,0.001499298647046089,0.14417027826458215,0.02673668882139027
1758447530609153000,0.991153076171875,0.017639701586961744,0.16274404583126306,0.031960506150592115
1758447530619126000,1.0011259765625,0.05599427442252636,0.1799611380919814,0.04368846294311806
1758447530629098200,1.01109814453125,0.05053483997285366,0.16332944450378417,0.019630774939479304
1758447530639070000,1.021070068359375,0.012637363255023955,0.12321341495364904,-0.029349026744253933
1758447530649043200,1.031043212890625,-0.08094751389324664,0.09666881463825702,-0.06118997990209609
1758447530659015200,1.04101513671875,-0.22530980759859084,0.06116115566641092,-0.07017618197211996
1758447530668988000,1.05098779296875,-0.2455097150623798,0.06515636278241872,-0.07184913841933012
1758447530678960000,1.060960205078125,-0.0879641146570444,0.055661973728239535,-0.11248907311256043
1758447530688933000,1.07093310546875,0.13046996195316313,0.014970190116763114,-0.18068775359978897
1758447530698905000,1.080905029296875,0.3368687328547239,-0.0482478980794549,-0.14712033284236675
1758447530708878000,1.090878173828125,0.5048053788930177,-0.0720110509827733,-0.12939369275746868
1758447530718850000,1.10085009765625,0.5981950257301331,-0.1157668983399868,-0.10547264587869867
1758447530728823300,1.1108232421875,0.5834867014199495,-0.15286270328611135,-0.10115507494052871
1758447530738795000,1.120794921875,0.5482470457345247,-0.15981091498881578,-0.11004970800327137
1758447530748768000,1.13076806640625,0.47042263229787346,-0.16379034001380205,-0.08058151185875759
1758447530758740200,1.140740234375,0.31819618108868597,-0.12148293789923191,-0.1057810359744355
1758447530768712000,1.1507119140625,0.11067279007136821,-0.08161445336937904,-0.1191110028698109
1758447530778685200,1.160685302734375,-0.06969429847300052,-0.04589870460480451,-0.10300316875893623
1758447530788657200,1.1706572265625,-0.17796704166531563,-0.06614508155882358,-0.08018758063772692
1758447530798630000,1.1806298828125,-0.18758301127254962,-0.11642477772682905,-0.11103747693160548
1758447530808602000,1.19060205078125,-0.13152853109538554,-0.11559797151386737,-0.11514392586974427
1758447530818575000,1.2005751953125,-0.07608896794617176,-0.10934826346933842,-0.059614364615827795
1758447530828547000,1.210547119140625,-0.032353871116042134,-0.10273147567808627,-0.011283318297564982
1758447530838520000,1.22052001953125,-0.03886135331392288,-0.0714534171000123,0.05179578155307099
1758447530848492000,1.230491943359375,-0.053017304438352585,-0.029574469530582428,0.07276585140544921
1758447530858465300,1.24046533203125,-0.07406593768596649,-0.024155074830353257,0.0455975297011435
1758447530868437000,1.25043701171875,-0.08606675660312176,0.014319324992597103,0.029458131408225743
1758447530878409200,1.2604091796875,-0.005846972462534904,0.03985504052639007,0.035153584837168454
1758447530888382200,1.27038232421875,0.10829787763357161,0.03372808207869529,0.044502099147252734
1758447530898354200,1.280354248046875,0.19376491477787494,0.013735387624800205,0.04733487488776445
1758447530908327200,1.2903271484375,0.19972353092134,-0.0122650228112936,0.04868612509993836
1758447530918299100,1.300299072265625,0.16102409017086028,-0.030343700337409973,0.051046844615601
1758447530928272100,1.310272216796875,0.08649930280148982,-0.03646861295849085,0.05261829518340528
1758447530938244000,1.320244140625,0.05280804560184479,-0.0527595302850008,0.059445072463527315
1758447530948217000,1.330217041015625,0.0627940175652504,-0.07874094375967979,0.052845089676603674
1758447530958189000,1.34018896484375,0.12107669518589972,-0.09757570035010575,0.06496401854809374
1758447530968161500,1.35016162109375,0.24873978302478789,-0.08749562036246061,0.04768827316900715
1758447530978133800,1.3601337890625,0.3428933999717235,-0.10452858822792768,0.02951440990641713
1758447530988106800,1.370106689453125,0.3564870410382747,-0.0989154245212674,-0.012528240324743091
1758447530998078500,1.380078369140625,0.2505745972365141,-0.07832096478193998,0.00859948604106903
1758447531008050700,1.39005078125,0.08032616712450981,-0.0800695620149374,0.01946963869417086
1758447531018023700,1.400023681640625,-0.013881225836277006,-0.11334434736818075,0.006345551368128508
1758447531027995600,1.40999560546875,-0.05783318028748035,-0.13564707233011722,0.024726371912285685
1758447531037968600,1.41996875,-0.06587094079256058,-0.13959259508550168,0.029680943846050648
1758447531047940600,1.429940673828125,-0.06624269671440124,-0.11281710862368345,0.00431307742614299
1758447531057913600,1.43991357421875,-0.0349216757774353,-0.08240121983289718,0.04646200104337185
1758447531067885600,1.449885498046875,0.034330139625072476,-0.058313657280802726,0.06589868731601163
1758447531077858600,1.459858642578125,0.10644085159003734,-0.0524307367220521,0.05154175199307501
1758447531087830500,1.46983056640625,0.14632979438602922,-0.06525017854571342,0.06051830945191904
1758447531097803500,1.479803466796875,0.13650924211740492,-0.09156623080223798,0.02255094583565369
1758447531107775700,1.489775634765625,0.05184124639630317,-0.06527882011830806,-0.011833389928378164
1758447531117748700,1.499748779296875,-0.027774726632237432,-0.045394846735894674,0.0183330358796753
1758447531127720700,1.509720703125,-0.06132219144701957,-0.08334668398946524,0.02666501182466745
1758447531137692700,1.519692626953125,-0.07213175475299358,-0.0644555210366845,0.031390706906002014
1758447531147665700,1.529665771484375,-0.02563946816921234,-0.08289484856873751,0.05112440336383879
1758447531157637600,1.5396376953125,0.013873627051711081,-0.06355711089223623,0.049112606883700935
1758447531167610600,1.549610595703125,0.08070318374335765,-0.03755903854370117,0.07545684405509381
1758447531177582800,1.559582763671875,0.15564356617629527,-0.05270137035697698,0.0846682879820466
1758447531187555600,1.5695556640625,0.16277414870858192,-0.027847499607503413,0.07844278279701247
1758447531197527600,1.579527587890625,0.11353870089650153,-0.015318272902071476,0.07913566043199971
1758447531207500800,1.589500732421875,0.03237666746973991,0.0022448563173413276,0.04193601151891053
1758447531217472500,1.599472412109375,-0.06740881788432598,0.024958207906782624,0.016823727295268327
1758447531227445500,1.609445556640625,-0.09853285494446754,0.022628011393547056,-0.006044321665540337
1758447531237417700,1.619417724609375,-0.01345978555381298,0.011589607767760753,-0.004540639104321599
1758447531247390700,1.629390625,0.10400397983193396,0.003258709535002708,0.022950594411417842
1758447531257362700,1.63936279296875,0.24189094004333017,0.0021586393386125564,0.05504910252690315
1758447531267334700,1.649334716796875,0.28900808052718635,-0.04563771558105945,0.10756788285858929
1758447531277307600,1.6593076171875,0.26545944715738296,-0.08114040611684321,0.1283458824712783
1758447531287279600,1.669279541015625,0.17260697593688965,-0.0866246827468276,0.15972780328262595
1758447531297252600,1.679252685546875,0.05796002153754234,-0.05477759210914373,0.16075046086125075
1758447531307224800,1.689224853515625,-0.02922960161566734,-0.029987141984701156,0.11375475479997693
1758447531317197600,1.699197509765625,-0.05184826065897941,-0.01864683280289173,0.10039598193522542
1758447531327169500,1.70916943359375,-0.014742226579785345,-0.050859249621629715,0.07470116684958339
1758447531337142800,1.719142822265625,0.09320435339808464,-0.08509557348340749,0.03947338426504284
1758447531347114500,1.729114501953125,0.23835867426395416,-0.15132336488962173,0.05721844592262059
1758447531357087500,1.73908740234375,0.3834773392945528,-0.20841244881153106,0.0692519980655983
1758447531367059700,1.749059814453125,0.44443011290729045,-0.24266250893771646,0.10247026745863258
1758447531377032700,1.75903271484375,0.4503881445288658,-0.2498983054101467,0.143227554054372
1758447531387004700,1.769004638671875,0.40741117258965964,-0.21435674416869877,0.14425061349179594
1758447531396977700,1.778977783203125,0.3417594275057316,-0.14807108509540556,0.08823018171470612
1758447531406949600,1.78894970703125,0.2884446014255285,-0.08377864566594362,0.10371873314976691
1758447531416921600,1.798921630859375,0.2408797171741724,-0.03413344800919294,0.11934614506624638
1758447531426894600,1.80889453125,0.13367080382108687,0.02126402956396341,0.03519293046686798
1758447531436866800,1.81886669921875,0.05969722059369087,0.008377075462043285,-0.03339815600458532
1758447531446839600,1.828839599609375,-0.013328268128633499,0.023007950621843336,-0.03398196550821885
1758447531456811800,1.838811767578125,-0.05788461821377277,0.04813274726718664,-0.04636034903349354
1758447531466784800,1.84878466796875,-0.05172784914970398,0.04000935430526733,-0.08223947166623548
1758447531476756500,1.858756591796875,0.011102993294596672,0.00604454086124897,-0.15574320889217777
1758447531486729700,1.868729736328125,0.06610299598276614,0.004623860408365726,-0.1845589324773289
1758447531496701700,1.87870166015625,0.13951485367417335,0.008297580485045909,-0.15917782298335806
1758447531506674400,1.88867431640625,0.1318926882326603,-0.0012675357177853582,-0.15267154636187477
1758447531516646700,1.898646728515625,0.11417115358114242,0.00573386747688055,-0.173549773212336
1758447531526619600,1.90861962890625,0.08536006963849067,-0.006929214741289615,-0.17803736695516853
1758447531536591600,1.918591552734375,0.08940379207134247,-0.025681553745269772,-0.19584944770066065
1758447531546563600,1.9285634765625,0.13652034803330898,-0.03856383167207241,-0.2170218899910338
1758447531556536600,1.93853662109375,0.18057634738087652,-0.07054010164737701,-0.24661058897636828
1758447531566508500,1.948508544921875,0.22114450461268423,-0.05734773485809564,-0.18347250721380112
1758447531576481500,1.9584814453125,0.19821838705539702,-0.036758828076720235,-0.10193493673922494
1758447531586453800,1.968453857421875,0.16509411608874797,-0.03194616709798574,-0.0809883208276704
1758447531596426800,1.9784267578125,0.11830898403823376,-0.027099311588704586,-0.0839040256112814
1758447531606398500,1.9883984375,0.03794014681577682,-0.009582944120466709,-0.06236295093791559
1758447531616371700,1.998371826171875,-0.019087562307715415,-0.03381371453553438,-0.04678001748397946
1758447531626343700,2.00834375,0.027535072657465933,-0.04163929359465837,-0.019927008806541562
1758447531636316400,2.01831640625,0.11430033291876315,-0.0465966237410903,0.040760702395532276
1758447531646288600,2.02828857421875,0.191379480946064,-0.03397095092386007,0.042214645797200495
1758447531656261600,2.03826171875,0.20390227791070936,-0.029335400077700614,0.03927355084400624
1758447531666233600,2.048233642578125,0.24045886141359804,-0.06040478434115648,0.019280691993329675
1758447531676205600,2.05820556640625,0.18413842377662656,-0.1077604097560048,-0.0033916699985973536
1758447531686178600,2.068178466796875,0.06035071606636047,-0.1407405960768461,0.014735979502089321
1758447531696150500,2.078150634765625,-0.011595160725712775,-0.12740648272931576,0.045920003121159965
1758447531706123500,2.08812353515625,-0.03859422681033611,-0.09120616531819105,0.06072007910171524
1758447531716095700,2.098095703125,-0.014742226579785345,-0.06420066949278116,0.03524358294187113
1758447531726068700,2.10806884765625,0.06555763705968856,-0.08584756089448928,0.020556739811133592
1758447531736040700,2.118040771484375,0.1469417888045311,-0.06268763458132744,-0.01848481064159423
1758447531746013700,2.128013671875,0.14739713135659693,-0.052258302764594554,-0.0018878413069061933
1758447531755985700,2.137985595703125,0.1200847615391016,-0.06048281801342964,-0.006119980717636644
1758447531765958700,2.147958740234375,0.10955927587151527,-0.08869652058482169,-0.0680196249927394
1758447531775930600,2.1579306640625,0.1592149949222803,-0.08225713518708944,-0.06432431413875893
1758447531785903600,2.167903564453125,0.20455986503660678,-0.0571557194173336,-0.052585927283763885
1758447531795875600,2.17787548828125,0.19459552038311956,-0.04471534003913402,-0.05219261711724102
1758447531805848600,2.1878486328125,0.13946516931355,-0.057363809210062025,-0.021862105054967104
1758447531815820800,2.19782080078125,0.02858312040567398,-0.04147942685782909,0.012446571656968443
1758447531825792500,2.20779248046875,-0.07837795566618443,-0.02608224350064993,0.006244684809539467
1758447531835765500,2.217765625,-0.13383622351586819,-0.021671733582019806,-0.015636800799332558
1758447531845737700,2.22773779296875,-0.07276537648141383,-0.016958733585476875,-0.057865128062013535
1758447531855710700,2.237710693359375,0.021168460234999655,-0.030601474490761754,-0.08643319702902809
1758447531865682700,2.2476826171875,0.1302238782376051,-0.07778758855760097,-0.10158860751958564
1758447531875655700,2.25765576171875,0.19674831450283525,-0.09380933355391025,-0.10236647829059511
1758447531885627600,2.267627685546875,0.22357962280511856,-0.11451982088834047,-0.07403382551465183
1758447531895600600,2.2776005859375,0.22056816602945326,-0.09761281749010085,-0.10918019515974446
1758447531905572600,2.287572509765625,0.23054186303317545,-0.06186375097781419,-0.09572875730916858
1758447531915545600,2.297545654296875,0.15818623639643192,-0.03998275855928659,-0.03308934578374028
1758447531925517600,2.307517578125,0.07605681924223899,-0.02024023947417736,0.01105451451037079
1758447531935490600,2.317490478515625,0.011557751324772833,-0.010526654711365699,0.018039331896416842
1758447531945462800,2.327462890625,0.028469138637185094,-0.021154431709647176,0.027917514370102432
1758447531955435800,2.337435791015625,0.07340893508195877,-0.010530161842703818,0.03275182092506438
1758447531965407500,2.347407470703125,0.12387363242805004,-0.025953648684918878,0.015215853707212955
1758447531975379700,2.357379638671875,0.1437041220575571,-0.06153729550242424,0.00004672521855682134
1758447531985352400,2.3673525390625,0.14586159235239027,-0.10168547375649213,-0.022372885855007914
1758447531995324700,2.37732470703125,0.12875146759748457,-0.11533990509957075,-0.004206237784493715
1758447532005297700,2.387297607421875,0.14362871873378752,-0.07565057652890682,0.004456979408860206
1758447532015269600,2.39726953125,0.17190438062548635,-0.04671498942375183,0.008233520539198071
1758447532025242600,2.40724267578125,0.1319102238893509,-0.07107435465455055,0.026199476672150192
1758447532035214600,2.417214599609375,0.06787117469906806,-0.09998977575451135,0.03314498496111482
1758447532045187600,2.4271875,0.06810615249872207,-0.07544745517224073,0.02888029498765245
1758447532055159600,2.43715966796875,0.0924304464161396,-0.06687456487715245,0.0372662661422044
1758447532065132500,2.447132568359375,0.09595335984528064,-0.08505231886357069,0.027926994584500788
1758447532075104800,2.457104736328125,0.13348960203528404,-0.07482055544555187,0.05455509019857272
1758447532085077500,2.467077392578125,0.15523147824406622,-0.061363984762132166,0.09031802083943039
1758447532095049700,2.4770498046875,0.14738310283124445,-0.08749562036246061,0.08761387644726783
1758447532105021700,2.487021728515625,0.1557557943791151,-0.10377981568723917,0.07728367588976398
1758447532114994400,2.496994384765625,0.20509645613133906,-0.10774141279458999,0.09557608749810606
1758447532124966700,2.506966552734375,0.19142156652212142,-0.09923252764642237,0.09644877867940813
1758447532134939600,2.516939697265625,0.12418342902958393,-0.07025690079182385,0.0528017437252216
1758447532144911600,2.52691162109375,0.03690963472425937,-0.028805530984699724,0.004890639852080494
1758447532154884600,2.536884521484375,-0.011742460241913794,0.0024777882903814314,-0.02292825471544638
1758447532164856600,2.546856689453125,-0.018878887993097303,0.007661620669066905,-0.012044073536992073
1758447532174829800,2.556829833984375,-0.05719312881827354,0.01767009672522545,0.019064418894145636
1758447532184801500,2.566801513671875,-0.043424715706706044,0.03564852874726057,0.04019691276662051
1758447532194774500,2.5767744140625,-0.02368015079498291,0.05144435603320598,0.04544610199909657
1758447532204746800,2.586746826171875,0.04805296002924442,0.03265080823600292,0.013501195276435464
1758447532214719500,2.596719482421875,0.12681845370829103,0.05097966113090515,0.016773367081210015
1758447532224691700,2.606691650390625,0.17889701599180696,0.04116583086401224,-0.004002878965809941
1758447532234664700,2.616664794921875,0.24483634584546088,0.00940291137844324,-0.019762100568413734
1758447532244636400,2.626636474609375,0.26577216636836526,-0.0013107903376221655,-0.003616802257671952
1758447532254608600,2.636608642578125,0.17537760969400404,0.029638474677503107,0.008234086794778704
1758447532264581600,2.64658154296875,0.06740823336243629,0.000929097543656826,0.004563691186346114
1758447532274553600,2.6565537109375,0.05300502947866916,-0.054769116541743275,0.005720898397453129
1758447532284526600,2.666526611328125,0.046077860563993454,-0.03860504046529531,-0.022658735325373706
1758447532294498600,2.67649853515625,0.04510755422711372,-0.02821457935422659,-0.024004852704703806
1758447532304471600,2.686471435546875,0.06317571035921574,-0.009024433454871177,0.017577669201418757
1758447532314443500,2.696443603515625,0.09742986213862895,0.015118366415798664,0.05539945033453405
1758447532324416500,2.70641650390625,0.13507540992200373,0.006448153226077556,0.05337916002068668
1758447532334388500,2.716388427734375,0.1447153449267149,0.0006654781714081763,0.043399289004504675
1758447532344361500,2.726361572265625,0.1336433312922716,0.035793197914958,0.05913726688968017
1758447532354333700,2.736333740234375,0.10470715966522694,0.03540741346776485,0.01188891950789839
1758447532364306700,2.746306640625,0.09545534719526767,0.018296411930024622,-0.031999048062693325
1758447532374278700,2.756278564453125,0.06031798284053802,0.014155074341595172,-0.011671331234462559
1758447532384251600,2.766251708984375,0.02882277438044548,0.014361118307709694,0.025360833890922366
1758447532394223600,2.7762236328125,0.0038771336942911147,0.02868336590975523,0.04283310648910701
1758447532404195600,2.786195556640625,0.00064005146920681,0.023587504075467586,0.056538208573497825
1758447532414168600,2.79616845703125,0.01155658228099346,0.04425532131195068,0.06220869195796549
1758447532424140800,2.806140869140625,0.08398527415394783,0.001998480340838432,0.03711903969123959
1758447532434113500,2.816113525390625,0.19611586181819438,-0.022346271842718122,0.02032031897306442
1758447532444085500,2.82608544921875,0.2711556129723787,-0.0697130031734705,0.047533320069313045
1758447532454058800,2.836058837890625,0.29185353308618067,-0.09437573526501655,0.036816293885000045
1758447532464030500,2.846030517578125,0.26443478028476236,-0.10059417138844728,0.05140234352238476
1758447532474003500,2.85600341796875,0.2062362738162279,-0.08819324723780154,0.054994120936654504
1758447532483975700,2.8659755859375,0.1850251434832811,-0.10363865365087985,0.02138323549684137
1758447532493948700,2.87594873046875,0.13297113111913203,-0.09475216736197471,0.02937682806663215
1758447532503920600,2.885920654296875,0.08535597798526287,-0.06531243012696504,0.01970266199875623
1758447532513893600,2.8958935546875,0.05721124899685383,-0.04524988530725241,0.0068952394064515825
1758447532523865600,2.905865478515625,0.008649754923582076,-0.038808746343851085,0.010304116268176585
1758447532533837600,2.915837646484375,-0.05221007970869541,-0.03567512449324131,0.005726871480513364
1758447532543810600,2.925810546875,-0.05529810885190963,-0.04128741141706705,0.011868242046050727
1758447532553782800,2.93578271484375,-0.013595394632220268,-0.03606704642027616,0.023139924704749137
1758447532563755500,2.945755615234375,0.07177052022516726,-0.03282967193424702,0.017506978585384785
1758447532573727500,2.9557275390625,0.12912497708499432,-0.013162848433852195,-0.004982756848633289
1758447532583700700,2.96570068359375,0.1277577803850174,0.005275602315366268,-0.018510949729848653
1758447532593672400,2.97567236328125,0.08804536319971085,0.022708675414323806,0.01759409061325714
1758447532603645400,2.9856455078125,0.0779085845887661,0.023047698110342026,0.0038845315494574605
1758447532613617700,2.99561767578125,0.06400163978934288,0.03688508480489254,-0.015940861779823897
1758447532623590700,3.005590576171875,0.07741583263576031,0.03223696673810482,0.0024501696310937405
1758447532633562600,3.015562744140625,0.07444529239237307,0.027862697176635264,-0.005100300547387451
1758447532643535600,3.02553564453125,0.09398936629593371,0.029921383272111413,-0.014827493710443377
1758447532653507600,3.035507568359375,0.09479016128480434,0.012662205435335635,-0.04544529828149825
1758447532663480600,3.04548046875,0.11965981412529944,0.025147885259985923,-0.03869629894532263
1758447532673452500,3.05545263671875,0.1156312892615795,0.06834872908294201,-0.047191045970283445
1758447532683424800,3.0654248046875,0.08600888893604278,0.06939239291697741,-0.0393367522733286
1758447532693397500,3.0753974609375,0.06599076777994632,0.010454466257989407,0.002976056668721139
1758447532703369700,3.08536962890625,0.08565349962711334,-0.006474456711113453,0.04225117841530591
1758447532713342700,3.0953427734375,0.17151684261262415,0.0030190555602312087,0.06777706667482852
1758447532723314400,3.105314453125,0.24599311466515064,-0.03166939598321915,0.07083729449566453
1758447532733287700,3.11528759765625,0.29103870957195754,-0.08352905481904745,0.06386215825341642
1758447532743259600,3.125259765625,0.31566578582823274,-0.0699587946280837,0.06855276375506072
1758447532753232600,3.135232666015625,0.22893267427086827,-0.04084492834657431,0.10457081993445753
1758447532763204600,3.14520458984375,0.1114092876523733,-0.03381371453553438,0.1325779305504635
1758447532773177600,3.155177490234375,0.03821019592881202,-0.005550035342574119,0.07902082014698535
1758447532783149800,3.16514990234375,0.06483458348214625,-0.006806757405400276,0.013972082457505166
1758447532793122600,3.17512255859375,0.136227502566576,-0.05975654956549406,0.009169760209694504
1758447532803094500,3.185094482421875,0.188289113715291,-0.07611234882175921,-0.02059891671873629
1758447532813066800,3.195066650390625,0.22260347124934196,-0.08949030131101608,-0.015714688341133296
1758447532823039500,3.20503955078125,0.22913141171336174,-0.11207973425984381,-0.01571905398899689
1758447532833011700,3.21501171875,0.13680033401846886,-0.08258505196720362,-0.05312171466089785
1758447532842984700,3.224984619140625,0.03127133657634258,-0.07487491598129271,-0.06446469072382897
1758447532852956400,3.234956298828125,-0.02840484122931957,-0.024380408018827435,-0.10753359699649735
1758447532862929700,3.2449296875,-0.016513327905535696,-0.0010813654959201812,-0.07990507390191778
1758447532872901600,3.254901611328125,0.04317921651303768,-0.0065159577652812,-0.03423824182422831
1758447532882874400,3.264874267578125,0.09343465502262115,-0.005022212076187134,-0.01294401805140078
1758447532892846600,3.2748466796875,0.07581365813612938,0.022924656252563,-0.00021714988201856613
1758447532902819600,3.284819580078125,0.024777882903814313,0.006200608205795288,0.052175008395314214
1758447532912791600,3.29479150390625,0.0033610008656978605,0.004721183302998542,0.06293901552651077
1758447532922764500,3.3047646484375,0.016133388677239416,0.005485445673763752,0.050400235541444266
1758447532932736500,3.314736572265625,0.04868599723577499,0.004074994353950023,0.04589485041359439
1758447532942709800,3.324709716796875,0.05818097081184387,0.006070552085340022,0.06169791115792468
1758447532952681500,3.334681396484375,0.0792892252922058,-0.020397768123447894,0.030116814512666314
1758447532962654200,3.344654296875,0.09285013313293457,-0.05702624781876802,-0.0036538463324308395
1758447532972627200,3.354627197265625,0.13561375458240507,-0.05773235026150941,-0.011319613453652708
1758447532982599200,3.36459912109375,0.19570318936407566,-0.08934475536048411,-0.04217950141858309
1758447532992572400,3.374572509765625,0.1793973667293787,-0.10231704965829849,-0.03692696945155039
1758447533002544000,3.384544189453125,0.17022329567074776,-0.08036357652544975,-0.035329726855363695
1758447533012517000,3.39451708984375,0.18939327556490898,-0.0551405802026391,-0.03435014123348519
1758447533022489300,3.4044892578125,0.14305004206299782,-0.03201689424663782,-0.0003006634470075369
1758447533032462000,3.414462158203125,0.09432254377305507,-0.02995645458549261,-0.0292671206144616
1758447533042434300,3.424434326171875,0.0622796383023262,-0.009531213933229445,-0.04824205286055803
1758447533052407300,3.4344072265625,0.00568681346476078,0.0013628127858042716,-0.04723941515665501
1758447533062379000,3.44437890625,-0.025496260306239128,0.004534720820188522,-0.037109248949587344
1758447533072352300,3.454352294921875,-0.007188450199365615,-0.0025590368330478666,0.027650844524241984
1758447533082324200,3.46432421875,-0.001934182932972908,-0.0491039303869009,0.052840815360285336
1758447533092296200,3.474296142578125,0.03901274448335171,-0.05398322686105966,0.002581431327946484
1758447533102269200,3.484269287109375,0.08075228358209133,-0.06035013154447078,0.028564050379022956
1758447533112241200,3.4942412109375,0.12765548905432222,-0.05378536620140075,0.015286818317882716
1758447533122214400,3.50421435546875,0.16967033796310424,-0.06721329531222582,0.01635733362622559
1758447533132186000,3.51418603515625,0.17882395075559615,-0.06120791741758585,0.040006614358909426
1758447533142159000,3.5241591796875,0.18612287559211252,-0.03558744620978832,-0.015489318620041012
1758447533152131300,3.53413134765625,0.12012626259326935,-0.028948738847672937,-0.040004385869204996
1758447533162104000,3.54410400390625,0.02296294243633747,-0.04094137445837259,-0.06294007497243582
1758447533172076300,3.554076171875,-0.03784779235720634,-0.025678338874876496,-0.06234937907028943
1758447533182049300,3.56404931640625,-0.01807341682910919,-0.009454641565680504,-0.06501015924476086
1758447533192021200,3.574021240234375,0.02435761166512966,-0.019012158983945846,-0.06723558020927012
1758447533201994200,3.583994140625,0.07318740128576755,0.00547287845313549,-0.04978329095318913
1758447533211966200,3.59396630859375,0.0978022025823593,0.007856850980222225,-0.041975284083373844
1758447533221939200,3.603939208984375,0.1311854167461395,-0.017561667914688585,-0.04568922657258808
1758447533231911200,3.6139111328125,0.181274851039052,-0.04890168581306934,-0.025490524685196577
1758447533241883400,3.62388330078125,0.16531155823171137,-0.06168897893279791,-0.028619543425925074
1758447533251856400,3.6338564453125,0.14634090030193328,-0.04012567416131496,-0.0426271355882287
1758447533261828000,3.643828125,0.1533814664632082,0.006353460679948329,-0.010668437802232802
1758447533271801300,3.65380126953125,0.0752069244146347,0.03865852421820164,0.04596888376418501
1758447533281773300,3.663773193359375,-0.02645955238044262,0.08891162464022635,0.1006760775182396
1758447533291746000,3.67374609375,-0.12989420789182185,0.10223580111563205,0.08187653837166727
1758447533301718300,3.68371826171875,-0.19470014980137346,0.08307137417942285,0.014069953341409563
1758447533311691300,3.693691162109375,-0.21284838543236254,0.09091478115618229,-0.009755451143160461
1758447533321663200,3.703663330078125,-0.1354085873991251,0.05751227777004242,-0.034609321892634035
1758447533331636200,3.71363623046875,-0.10974690739810466,0.013046528577804565,-0.08013532072752713
1758447533341608200,3.723608154296875,-0.08568915546238422,0.018085984049737453,-0.073881046105735
1758447533351581400,3.73358154296875,-0.026961072161793706,0.03944412163794041,-0.08218363155946135
1758447533361553200,3.74355322265625,0.07436462837159633,0.015424071364104747,-0.09843257290776819
1758447533371525400,3.753525390625,0.1688403168797493,0.021027590459585188,-0.055010999006219204
1758447533381498400,3.763498291015625,0.27995032932460306,0.04014671694934368,0.03147080467119813
1758447533391470000,3.773469970703125,0.3891290814459324,0.01070522614866495,0.07728500933032482
1758447533401443300,3.783443359375,0.4840063364923,-0.03983165965080261,0.09076108843181281
1758447533411415300,3.793415283203125,0.568494883993268,-0.06585808131098747,0.08204027756601572
1758447533421388000,3.803387939453125,0.6223585761278867,-0.04320727356374263,0.08604385065156966
1758447533431360300,3.8133603515625,0.5394394699007272,-0.0349675607457757,0.08547869104947894
1758447533441333200,3.823333251953125,0.39846681863367556,-0.04676730413287878,0.029594160611741242
1758447533451305200,3.83330517578125,0.2722048297643661,0.0007917348995804786,-0.012821743378601968
1758447533461278200,3.8432783203125,0.0980640683889389,0.0061114686176180835,-0.006081913729570806
1758447533471250200,3.853250244140625,-0.04801262801885604,0.016659750638902186,-0.004925765964388847
1758447533481223400,3.863223388671875,-0.12201485281884669,0.04449935920089483,0.0008423325756564736
1758447533491195100,3.873195068359375,-0.09414426459670067,0.0684101038813591,0.008362864273600279
1758447533501168000,3.883168212890625,-0.009245382729172706,0.061518298541009424,0.01270030895601958
1758447533511140400,3.893140380859375,0.09904548064172268,0.0776359051272273,0.0005746580827981233
1758447533521112300,3.9031123046875,0.16472294468879697,0.09758359139561652,-0.009014167789183557
1758447533531085300,3.913085205078125,0.17409692223370074,0.07079056927710771,0.017975619010441004
1758447533541057300,3.923057373046875,0.08695873700678348,0.07145633970946073,0.05859711386468261
1758447533551030300,3.9330302734375,-0.04924947633743286,0.0352417015120387,0.0420553270496428
1758447533562248200,3.944248291015625,-0.13867255763113498,0.043977673414349557,0.053513125131279225
1758447533572221200,3.95422119140625,-0.1375561208218336,0.013062310668826103,0.03834657219219952
1758447533582193200,3.964193115234375,-0.11312953557372092,-0.0037991000220179557,0.030862938438542185
1758447533592166100,3.974166259765625,-0.07123626721799373,-0.009931611427664756,0.027526231763884423
1758447533602138400,3.984138427734375,-0.003167524120211601,-0.007896890729665755,0.017683906054869292
1758447533612111400,3.994111328125,0.07216916415393353,-0.01544920580536127,0.011685469357669353
1758447533622083000,4.0040830078125,0.1279091715544462,-0.019418401697278022,0.022707104511745273
1758447533632056300,4.014056396484375,0.161485277941823,-0.03097206136882305,-0.010430720056220888
1758447533642028300,4.0240283203125,0.1713976001471281,-0.01866115358918905,-0.015040551939234136
1758447533652001000,4.0340009765625,0.16995324655771255,-0.03985650183111429,-0.00782846513595432
1758447533661973200,4.04397314453125,0.13055354858338833,-0.0473871895968914,-0.00078519556093961
1758447533671945200,4.0539453125,0.0667629211962223,-0.06969839012622833,-0.014463994160294532
1758447533681918200,4.063918212890625,0.015259528452157974,-0.07722498623877763,-0.027891850205883383
1758447533691890200,4.07389013671875,0.010438391906023026,-0.07974602914899587,-0.022272841280326246
1758447533701863200,4.08386328125,0.0823965436577797,-0.046287703922390934,-0.003740282506868243
1758447533711835100,4.093835205078125,0.15814590438604353,-0.01564911229163408,-0.0122650228112936
1758447533721808100,4.10380810546875,0.14000234493017197,-0.01973433577865362,-0.0025366423381492495
1758447533731780400,4.1137802734375,0.10403145236074923,-0.0046820203363895415,-0.0040520153371617195
1758447533741753300,4.12375341796875,0.06463292343020438,0.02715922508239746,0.03203885035011917
1758447533751725300,4.133725341796875,0.0038519992530345916,0.027828210385143756,0.055813328365050256
1758447533761698300,4.1436982421875,-0.07604980497956275,0.015553542962670325,0.04871916885301471
1758447533771670300,4.153670166015625,-0.10108663108050822,-0.029041093306243417,0.04460639977194369
1758447533781643300,4.163643310546875,-0.08345569732189179,-0.08150427099317312,0.010107990907877683
1758447533791615200,4.173615234375,-0.05641103852987289,-0.06363163743317127,0.049539070401154454
1758447533801587500,4.18358740234375,-0.06420797601640224,-0.05181085125803947,0.10647939350213854
1758447533811560200,4.193560302734375,-0.08161036171615123,-0.049127019001543516,0.08125212286300956
1758447533821532200,4.2035322265625,-0.05056406606733799,-0.031247955700755118,0.004329517104290426
1758447533831505400,4.21350537109375,-0.005967968493700027,-0.022470775005221367,-0.0007146876079961657
1758447533841477000,4.22347705078125,0.07162731236219405,-0.03302110285311937,0.006850377351418137
1758447533851450000,4.2334501953125,0.15640578272044658,-0.06362228508293628,-0.01604943672083318
1758447533861422300,4.24342236328125,0.24355565838515758,-0.07848550769388675,-0.030904074166528878
1758447533871395000,4.25339501953125,0.3570692248404026,-0.06993950540572405,-0.03935308235362172
1758447533881367300,4.2633671875,0.41720659041702746,-0.07034165646582842,-0.07063738800939172
1758447533891340300,4.27334033203125,0.3593506137758493,-0.04482873728573322,-0.10194817981328815
1758447533901312000,4.28331201171875,0.2688216170668602,0.01270867492556572,-0.08684654533658176
1758447533911285200,4.29328515625,0.14514087686240673,0.04316694155335426,-0.030350057012960313
1758447533921257200,4.30325732421875,0.050666357398033136,0.025029227316379545,0.024839111571758984
1758447533931230200,4.313230224609375,-0.0011696283012628554,0.007072130343317985,0.006855236189626157
1758447533941202200,4.3232021484375,0.07957914814949035,-0.0047977556705474855,-0.02990001169051975
1758447533951175200,4.333175048828125,0.19856851566731928,-0.0125134446144104,-0.021563560499809682
1758447533961147600,4.343147705078125,0.26467560330331324,-0.04343962101489305,-0.05344152119979262
1758447533971119600,4.35311962890625,0.2865466588497162,-0.04145429241657257,-0.054124863821454344
1758447533981092600,4.363092529296875,0.24115035080909727,-0.030702012255787847,-0.027145963742025193
1758447533991064600,4.373064697265625,0.13939853381812572,0.009678513449430465,-0.04703315199483186
1758447534001037600,4.38303759765625,0.06620294922590256,0.051666182090342044,-0.07071505635548382
1758447534011009800,4.393009765625,0.0187701669216156,0.0530491608813405,-0.042460035393014545
1758447534020982500,4.402982421875,-0.015485153901576995,0.0555652353554964,-0.021927717637084423
1758447534030954500,4.41295458984375,0.00040098201632499694,0.06313216347843409,0.030488186842016873
1758447534040927700,4.422927734375,0.060731239816546434,0.04027531176507473,0.10733809269070625
1758447534050899500,4.4328994140625,0.12173545135557651,-0.003260170839726925,0.11209719685129821
1758447534060872400,4.44287255859375,0.1958276925265789,-0.024993863742053507,0.08463617581073195
1758447534070844700,4.4528447265625,0.23948738603293895,-0.017001403683423996,0.05201923331171274
1758447534080817700,4.462817626953125,0.2543856799572706,-0.03515753035992384,0.04448087369613349
1758447534090789600,4.47278955078125,0.2017477302253246,-0.044943595837056635,-0.017553411542996764
1758447534100762600,4.4827626953125,0.12190788531303405,-0.025240239718556403,-0.015194902250729501
1758447534110734600,4.492734619140625,0.007147533667087555,-0.009738134682178497,0.03016538462843746
1758447534120706600,4.50270654296875,-0.10261924747526645,-0.0391524452149868,-0.001327083885297179
1758447534130679600,4.512679443359375,-0.13869535398483276,-0.04047638729512691,-0.012396832497417926
1758447534140651800,4.52265185546875,-0.09364099124968052,-0.012712766578793526,0.013731405569426714
1758447534150624500,4.53262451171875,-0.046187166157364845,-0.013638064730167388,0.02403795125670731
1758447534160596700,4.5425966796875,0.013591887500882149,-0.014922551582753657,-0.0075656494813039895
1758447534170569700,4.55256982421875,0.05985445698201656,-0.008909574903547763,-0.03974208167120814
1758447534180541400,4.56254150390625,0.10355565154254436,-0.01275222180634737,-0.03471121136453002
1758447534190514700,4.5725146484375,0.17514087832868097,-0.022323183228075503,0.0105334132457152
1758447534200486700,4.582486572265625,0.1738420706897974,-0.0009647533789277076,0.02774067823216319
1758447534210459600,4.592459716796875,0.19325462716817854,0.016583470532298087,0.017240692332014442
1758447534220431600,4.602431640625,0.21373335157334802,0.016422434751689433,0.060696131970547136
1758447534230404600,4.612404541015625,0.15762684894800186,0.0035100539475679394,0.08386186696998775
1758447534240376800,4.622376953125,0.1080196452140808,0.02015957545340061,0.07957797910571097
1758447534250348500,4.6323486328125,0.01913257049322128,0.02087327668070793,0.051869814903661604
1758447534260321500,4.642321533203125,0.02198211470544338,0.053551849706470964,0.03022635756805539
1758447534270293800,4.652293701171875,0.0669715955108404,0.08059446267187595,0.004764985912106931
1758447534280266500,4.6622666015625,0.11766425639390944,0.030530747342109678,-0.016208170946501194
1758447534290238700,4.67223876953125,0.1825479397147894,-0.01802460925132036,-0.041219205019064245
1758447534300211700,4.682211669921875,0.18382979621887205,-0.03759118724763393,-0.06127389532588422
1758447534310183400,4.692183349609375,0.18163374747931957,-0.025064006368815898,-0.07880973467957228
1758447534320156700,4.70215673828125,0.2589876207947731,-0.017781740406155586,-0.07241122928149998
1758447534330128600,4.712128662109375,0.29347499680817124,-0.021080489690601823,-0.047067784916795787
1758447534340101600,4.7221015625,0.31950492559969423,-0.026358430093526838,-0.042060989605449135
1758447534350073600,4.732073486328125,0.307006094032526,-0.019887480513751506,-0.040845878194645045
1758447534360046600,4.742046630859375,0.2762643342882395,0.01349982530325651,-0.0062185822539031505
1758447534370018800,4.752018798828125,0.22046879730820654,0.014198328961431979,-0.011223441336490213
1758447534379990500,4.761990478515625,0.12562310644388197,0.019812661711871623,-0.050838060703128574
1758447534389963500,4.771963623046875,0.08497954588830471,0.030948388232290742,-0.09984320689067244
1758447534399935700,4.781935791015625,0.08624269769191742,0.04743365908712149,-0.11962083382178097
1758447534409908500,4.791908447265625,0.06569032352864741,0.014529168350994586,-0.07831318333428353
1758447534419880700,4.801880615234375,0.04792202712595463,-0.008496317927539349,-0.06258114199955016
1758447534429853700,4.811853759765625,0.07336801854968071,0.010023965886235237,-0.01900638683028519
1758447534439825400,4.821825439453125,0.14097498935461045,0.004750117136538028,0.011437814739532768
1758447534449798700,4.831798583984375,0.21338088487386703,-0.01881108345389366,0.018279095469042658
1758447534459770600,4.8417705078125,0.3018634704470634,-0.05854366664439439,-0.0065429919026792046
1758447534469743600,4.85174365234375,0.2625333305776119,-0.07561638199836015,0.008345767008326947
1758447534479715600,4.861715576171875,0.17154489966332911,-0.09448241050988435,-0.02943374588564038
1758447534489688600,4.8716884765625,0.12582593553960322,-0.08838175554722547,-0.09217026110999285
1758447534499660500,4.88166064453125,0.03582710018455982,-0.06116057114452123,-0.08810421724747866
1758447534509633500,4.891633544921875,-0.06267126796841621,-0.05513122785240412,-0.09737225019987672
1758447534519605800,4.901605712890625,-0.07822773354053497,-0.030745851397514342,-0.11523622552938759
1758447534529577500,4.911577392578125,0.008880641070008277,-0.03868716579079628,-0.16625778957325965
1758447534539550500,4.921550537109375,0.10637830774784088,-0.07334551445692777,-0.16081844806354492
1758447534549522700,4.931522705078125,0.13301321669518948,-0.060627194920182224,-0.1729394958268851
1758447534559495700,4.94149560546875,0.08793313499689101,-0.06514496460556983,-0.1326576447231695
1758447534569467600,4.951467529296875,-0.0018009119421243667,-0.0888876592427492,-0.0652615767225623
1758447534579440600,4.961440673828125,-0.06196691909134388,-0.10742138705998658,0.04465549961067736
1758447534589412600,4.97141259765625,0.03572539337575435,-0.16410568957328794,-0.021271884076856075
1758447534599385600,4.981385498046875,-0.03480535592138767,-0.09242752380669117,-0.09485321658365428
1758447534609357600,4.991357666015625,-0.07543021177649498,-0.06453939992785454,-0.14571056650914252
1758447534619330600,5.00133056640625,-0.13519231429994105,-0.06533639552444219,-0.06266060044392943
1758447534629302500,5.011302490234375,-0.03234334972202778,0.055608782236278055,-0.05963200987037271
1758447534639275500,5.021275634765625,0.16913082425892353,0.07448503988087177,-0.039762174611166115
1758447534649247700,5.031247802734375,0.4236807548671961,0.07292436643540859,-0.2584565095927566
1758447534659219500,5.041219482421875,0.5161275678962469,0.11012421627789735,-0.485532632744126
1758447534669192400,5.0511923828125,0.38497429985404014,0.20904753184467553,-0.3493748709455132
1758447534679164700,5.06116455078125,0.19123802664875983,0.15740677645653486,0.22430559899210928
1758447534689137700,5.0711376953125,0.06864741976857185,0.22166356005072593,-0.3549834680749103
1758447534699109600,5.081109619140625,-0.09005202684700489,0.39291093807220456,-0.5115400939755141
1758447534709082600,5.09108251953125,-0.17072539997398853,0.48694443577080965,-0.5177829338878392
1758447534719054600,5.1010546875,-0.4097860850274563,0.507673335544765,-0.7252994567729533
1758447534729027600,5.111027587890625,-0.6649065090000629,0.5726289150580763,-0.7295463005624712
1758447534738999600,5.12099951171875,-0.7454284909576178,0.5682315568819641,-0.657995925894007
1758447534748972500,5.13097265625,-0.6897340762645006,0.45507922495454545,-0.504268276341632
1758447534758944500,5.140944580078125,-0.5157154799640178,0.261126970911026,-0.28215635146889834
1758447534768917500,5.15091748046875,-0.27034780372083184,0.0621378917440772,-0.07986707997908815
1758447534778889700,5.1608896484375,-0.022330489751696585,-0.03232552180439233,-0.010626279160939157
1758447534788861400,5.170861328125,0.21450784307718276,-0.08165303181409836,-0.07183580401372164
1758447534798834700,5.180834716796875,0.4831862522810697,-0.12015052025169133,-0.17091847486067563
1758447534808806700,5.190806640625,0.71664721763134,-0.15227759687453507,-0.24319109938908368
1758447534818779600,5.200779541015625,0.7136030276298523,-0.14993775575011967,-0.32661658423580225
1758447534828751600,5.210751708984375,0.6290735635966063,-0.08780424792021513,-0.40623770836349576
1758447534838724600,5.220724609375,0.4925485393881798,0.14158493794649837,-0.5427572161465883
1758447534848696800,5.23069677734375,0.33533670098185536,0.42720191473066804,-0.6939096083834767
1758447534858669600,5.240669677734375,0.269784324619174,0.604056903500855,-0.8099027166947722
1758447534868641500,5.2506416015625,0.4066781821399927,0.7319768887102603,-0.776659860849753
1758447534878614800,5.26061474609375,0.4869827219545841,0.5395028905257583,-0.8538435652300715
1758447534888586500,5.27058642578125,0.620254297325015,0.39941520539969205,-0.6793699917037039
1758447534898559500,5.2805595703125,0.8121580944061279,0.2412842063218355,-0.5007660038417205
1758447534908531700,5.29053173828125,1.0231149670034647,0.11646247938871383,-0.41016529360339044
1758447534918503400,5.30050341796875,1.1072060396194456,0.0768473850980401,-0.3947884223818779
1758447534928476700,5.3104765625,0.9967571214318275,0.07978665342032909,-0.44368773357477037
1758447534938448600,5.32044873046875,0.9533230533748864,0.11222703377604484,-0.495094205283001
1758447534948421600,5.330421630859375,1.0444172827512026,0.16785422845184803,-0.4356977212015539
1758447534958393600,5.3403935546875,1.0893342828422785,0.20994068129211663,-0.40021870380230246
1758447534968365300,5.350365234375,0.6291688406646251,0.21008739628642797,-0.5866864473093301
1758447534978337300,5.360337158203125,0.5853676928609609,0.2335875143393874,-0.7845644234292208
1758447534988310300,5.370310302734375,-0.6835211930990218,0.3517769636511802,-0.007123349073901772
1758447534998282500,5.380282470703125,-1.797918021005392,-0.29003333192169667,4.240836365796626
1758447535008255200,5.390255126953125,-1.5198948603510856,-1.7241444903947412,5.14650247272253
1758447535018227500,5.4002275390625,-1.61149587020576,-3.003034399756789,4.740077680821717
1758447535028200400,5.410200439453125,0.11776947033405304,-2.3886731059931217,2.118580738338083
1758447535038172200,5.420172119140625,2.2589204985290765,-0.8441964698322116,-0.4040613507051021
1758447535048145400,5.4301455078125,2.9720576622128485,-0.26184900157526136,-0.963364774113521
1758447535058117400,5.440117431640625,2.7515841887295243,0.040969431509077545,-1.1580969264883547
1758447535068089300,5.45008935546875,1.469557588776946,0.08087064926475286,-2.1645807113602755
1758447535078062300,5.460062255859375,0.05742226139903068,-0.33930560461282727,-2.6719115170776844
1758447535088034300,5.470034423828125,0.6992313879281282,0.05955649694874882,-0.5116368323482573
1758447535098007600,5.480007568359375,0.7978460759371518,-0.21021043814420698,-0.5693632643256337
1758447535107979300,5.489979248046875,1.513446999385953,-0.17020970553681253,-1.435991127000749
1758447535117952300,5.4999521484375,1.7797820603340864,0.7298480599880218,-1.5617060033813117
1758447535127924500,5.509924560546875,1.4211393025666474,0.7109706332996487,-1.6358315623000264
1758447535137897200,5.519897216796875,0.9950228449851274,0.7636166202075779,-3.0041978905782103
1758447535147869400,5.529869384765625,0.4757119708776474,0.7204222061254084,-4.141416206623614
1758447535157842400,5.539842529296875,-0.1331125854164362,0.4919355220563709,-5.103493352079391
1758447535167814100,5.549814208984375,-0.20379063422977922,0.8202569374486803,-5.437209758383036
1758447535177787400,5.559787353515625,0.43882922416031356,0.8821066599011421,-4.034455715073645
1758447535187759400,5.56975927734375,1.0400070650935171,0.3736870360337198,-2.577570853126049
1758447535197731300,5.5797314453125,1.2112848382532595,-1.8144776722706852,-1.8177084708854554
1758447535207704300,5.589704345703125,1.7998937049925325,-2.225500459486246,-1.4251811253033577
1758447535217676300,5.59967626953125,3.0906846261590717,-0.7834579234920441,-1.628580860519409
1758447535227649500,5.6096494140625,4.651675467008352,0.5205125049822033,-1.9389966168649493
1758447535237621200,5.619621337890625,5.170315894508361,0.8988616876080632,-1.0982524063784629
1758447535247594200,5.62959423828125,5.2421366836160415,1.023681368714571,0.42869259167984125
1758447535257566500,5.63956640625,5.425850744500756,0.12752923232614993,0.9756114575505256
1758447535267539200,5.649539306640625,3.246451526454091,-0.807297502632439,2.065878052806854
1758447535277511400,5.659511474609375,1.3652332909494638,2.9858310437604785,-1.671585451117903
1758447535287484400,5.669484375,3.1001930437386034,4.295483317263424,-1.3022545644670724
1758447535297456400,5.679456298828125,3.297136588552594,2.1109066965788603,-0.8014243728153407
1758447535307429400,5.689429443359375,3.176733262583613,0.5049903800711035,-1.0730187425311655
1758447535317401300,5.6994013671875,2.962057077202201,0.30647242554724213,-1.3155141512736677
1758447535327373300,5.709373291015625,2.4651620330423114,0.8640762054309249,-1.1260243565317243
1758447535337346300,5.71934619140625,2.1872861719042063,1.3859556148521601,-0.9195639185708016
1758447535347318500,5.729318603515625,1.8517074788600205,1.7435661069624124,-0.6637560968559235
1758447535357291500,5.73929150390625,1.7570237005591391,2.1883242827802896,-0.12453596879430115
1758447535367263200,5.74926318359375,0.6958470061868429,3.046063394144177,0.4900203360848128
1758447535377236500,5.759236572265625,0.4986375039130449,3.739695062369108,1.50847754041031
1758447535387208400,5.76920849609375,0.9562988543152808,3.7228099785417315,1.5029370035484433
1758447535397181200,5.77918115234375,0.8543979842424392,3.11971636711508,1.3545008845329285
1758447535407153400,5.7891533203125,0.6191898829638958,2.6055063232779503,1.5920879899024962
1758447535417126400,5.79912646484375,0.6789046392142772,2.3499818485490978,1.3316510470822454
1758447535427098400,5.809098388671875,0.9060638740718364,2.1882050403147932,1.2028028411120175
1758447535437071400,5.8190712890625,1.0340075324177742,2.0302835923343894,1.408307293522358
1758447535447043300,5.829043212890625,1.1528379099816084,2.186025942710042,1.7457812987938521
1758447535457015300,5.839015380859375,1.3669535388708114,2.6787352256178854,1.9817282357409596
1758447535466988300,5.84898828125,1.0254431176900862,3.0649893361493943,2.1709555070891975
1758447535476960500,5.85896044921875,0.18353461266458032,3.126713970917463,2.1245491452232
1758447535486933500,5.86893359375,-0.532017210945487,3.0825927973791956,1.756940113928914
1758447535496905200,5.8789052734375,-1.0549392612874506,2.8761253451555966,1.2986252680540085
1758447535506878500,5.88887841796875,-1.4094810134768485,2.3951376258321107,0.8667705590814352
1758447535516850400,5.898850341796875,-1.4840905565202236,2.094916515764594,0.8252291729032993
1758447535526823200,5.9088232421875,-1.172870644184947,2.266705745577812,1.0340905345261096
1758447535536795400,5.91879541015625,-0.865767519518733,2.591969965356588,1.4774994876921177
1758447535546768400,5.928768310546875,-1.1009265209585428,2.2226231504842637,1.3697533987224102
1758447535556740400,5.938740234375,-1.4738345354437827,1.9363773742772639,1.3599842843800782
1758447535566713300,5.94871337890625,-1.5004127457678318,1.9203382397547364,0.9775736975342034
1758447535576685300,5.958685302734375,-1.6191612902671098,1.7396666153058409,0.24124212074577808
1758447535586657300,5.9686572265625,-1.7804694580763578,1.1844772030875086,-0.2682709974467754
1758447535596630300,5.97863037109375,-1.743940639363229,0.6967333605673164,-0.4796732757240533
1758447535606602500,5.9886025390625,-1.424245451888442,0.6196893569186329,-0.5557435389697551
1758447535616575200,5.9985751953125,-1.4653507847368716,0.450222213377431,-0.8137848188251257
1758447535626547500,6.00854736328125,-2.0217682774454353,0.3181301301151514,-1.1921183654904366
1758447535636520400,6.0185205078125,-2.4697929077133534,0.46558235265985126,-1.4629390474200248
1758447535646492200,6.0284921875,-2.6257377949237823,0.5078083601012826,-1.5848305661201476
1758447535656465400,6.03846533203125,-2.550166128849983,0.17310177371650934,-1.753588465413451
1758447535666437400,6.048437255859375,-2.409461188608408,-0.06992547688037157,-1.6743915945798158
1758447535676410400,6.058410400390625,-2.1494804651230575,0.0631477994389832,-1.334051970744133
1758447535686382300,6.06838232421875,-1.737257362207025,0.3127881845653057,-1.1499819360285997
1758447535696354300,6.078354248046875,-1.5215993261814116,0.26049539500921964,-1.2740876236468552
1758447535706327600,6.08832763671875,-1.2600748803853987,-0.08743746043443679,-1.6044938824892043
1758447535716299300,6.09829931640625,-0.9038372840635478,-0.3602200900867581,-2.01519474427402
1758447535726272300,6.108272216796875,-0.7418044552415609,-0.3727537007063627,-2.5124866787970066
1758447535736244500,6.118244384765625,-0.7586376627512276,-0.0825263075172901,-2.8966198516517876
1758447535746217200,6.12821728515625,-0.8725929816246032,0.3493988363429904,-3.1336697814047336
1758447535756189400,6.138189453125,-1.3218695116497576,0.44328445000350475,-3.3049007928133007
1758447535766162400,6.148162353515625,-1.6025725590378046,0.5925909221127629,-3.5818998711168764
1758447535776134100,6.158134033203125,-1.3254665132284165,1.1292194262459874,-3.6898458665728566
1758447535786107400,6.168107421875,-0.8792862687181681,1.443531459377706,-3.8610353769272563
1758447535796079400,6.178079345703125,-0.7813976299613714,1.4104191711097955,-4.197831629067659
1758447535806052400,6.18805224609375,-0.5561223091542721,1.2561693973794579,-4.606957788881659
1758447535816024300,6.1980244140625,0.21089608232080936,1.343152976566553,-5.254566541600227
1758447535825997300,6.207997314453125,0.8642775732219219,1.5055495241343975,-5.681643368646502
1758447535835969500,6.217969482421875,1.1810633760560303,1.5631670158445834,-5.632812994503975
1758447535845941200,6.227941162109375,1.4485785136342049,1.4956927315086126,-5.3212926379173995
1758447535855914200,6.237914306640625,1.8034125267684458,1.1069038418024777,-5.246346994787454
1758447535865886500,6.247886474609375,2.0906974367648363,0.5126823958784341,-5.684041077437996
1758447535875859200,6.257859130859375,2.1353473103523255,-0.30111177529692645,-6.300656725999713
1758447535885831400,6.26783154296875,2.2138053455173967,-0.683493136048317,-6.644222910666465
1758447535895804400,6.277804443359375,3.1088655950158834,-0.03461421726346016,-6.033099429780244
1758447535905776400,6.2877763671875,4.091843781942129,0.2925882771015167,-5.47302867526114
1758447535915749400,6.297749267578125,4.402880154404044,-0.11074702435135841,-5.320519315457344
1758447535925721300,6.307721435546875,4.78002887519896,-0.5701555106818675,-4.404551887008547
1758447535935694300,6.3176943359375,4.235319355940819,-0.4452501971185207,-3.906868907341361
1758447535945666300,6.327666259765625,3.147035458934307,0.2062228298127651,-3.49528191037178
1758447535955638500,6.337638427734375,2.8539275418728587,-0.2718178762733936,-3.4230496178537604
1758447535965612000,6.347612060546875,0.7297346627414226,-0.8350935643136501,-4.43541288921833
1758447535975583700,6.357583740234375,-0.4098983132302761,-1.2455892589151858,-3.7383342954099175
1758447535985556700,6.367556640625,-0.4634025244027376,-1.2726824330240487,-2.4372055201023817
1758447535995529000,6.377529052734375,0.31184009006023405,-1.0346142661392688,-1.467612299928069
1758447536005501700,6.387501708984375,0.5252309118062257,-0.9237573516726493,-1.0957406427532435
1758447536015474000,6.397473876953125,-0.6070587156653404,-0.7306275199279189,-0.9840139597147702
1758447536025447000,6.407447021484375,-1.6479145065426826,-1.3129109830379486,-0.9730021518349647
1758447536035418600,6.417418701171875,-0.6734288381516933,-2.448590252947807,-0.05538169548213481
1758447536045392000,6.427391845703125,0.5202466936528682,-2.5689032702848316,1.0250076488822697
1758447536055363800,6.43736376953125,1.3322381993204355,-1.6214125763252376,2.50233470261693
1758447536065336800,6.4473369140625,1.9454120368652044,-0.8821084134668111,4.010629726067185
1758447536075308800,6.457308837890625,2.0901427254915235,-0.8192962757229805,5.451417731955647
1758447536085280800,6.46728076171875,1.7809383907623588,-0.8480527068689465,5.653252555942535
1758447536095254000,6.47725390625,1.9290736271351574,-0.7804124183163046,5.859712701642513
1758447536105225700,6.487225830078125,1.9766841040939092,-0.7263894439667463,6.0390229746103286
1758447536115199000,6.497198974609375,2.0044927329957485,0.26841975826770065,7.533243295478821
1758447536125171000,6.5071708984375,1.838781946313381,0.3596598258554935,6.90622900249958
1758447536135143700,6.517143798828125,1.3613150945924222,-0.3447273374006152,5.489432697573304
1758447536145116000,6.527115966796875,1.7247708055995403,-1.649674501952529,3.619266601958871
1758447536155089000,6.5370888671875,1.8342542397558688,-2.334635080204904,3.169711985644698
1758447536165060900,6.547060791015625,1.5358699897266923,-1.7041764919906854,2.2904671449154614
1758447536175033900,6.557033935546875,1.4539216282278298,-1.123919858533144,1.526589389553666
1758447536185005800,6.567005859375,1.4079868293963371,-1.7381211394295095,0.6193249075204134
1758447536194977800,6.576977783203125,1.119686897138506,-1.9674217702299355,-0.509995348751545
1758447536204950800,6.58695068359375,0.9169823045797646,-2.248342698152363,-2.266386596626043
1758447536214923000,6.596923095703125,1.267068100273609,-1.3564128556340933,-2.493667996558547
1758447536224896000,6.60689599609375,0.9904419469356537,-0.16250000794231892,-1.0287702162861823
1758447536234867700,6.61686767578125,0.41038770418241616,-0.8269684177860617,-1.0365712454259395
1758447536244841000,6.626841064453125,2.723522461849451,-3.2578549639999865,-0.31574235819578167
1758447536254813000,6.63681298828125,-0.5222901821792125,-4.7848330606102945,-5.04055203499794
1758447536264785700,6.64678564453125,-3.505032320013642,-3.7288618259266015,-6.011899405363201
1758447536274758000,6.6567578125,-0.14938742839097977,-3.424446040648222,-3.9629777480542656
1758447536284731000,6.66673095703125,0.45777065599560735,-2.67965877020359,-1.8605255760878323
1758447536294702800,6.676702880859375,-0.037198973059654236,-2.6037445743024348,-1.1991904958337545
1758447536304675800,6.68667578125,-1.1173301048792899,-2.0147908396482466,-1.179051378646493
1758447536314647800,6.696647705078125,-1.4727110843718052,-1.361472769372165,-1.2061556586712598
1758447536324619800,6.706619873046875,-1.4195628470301627,-1.419841956232488,-0.5006324771225452
1758447536334592800,6.7165927734375,-0.3825309983551502,-1.5444740058124065,-0.14837620552182196
1758447536344565000,6.72656494140625,1.732118976405263,-1.7536381497740745,-0.15472878941893578
1758447536354538000,6.7365380859375,2.235557158598304,-0.18126520642787217,0.7930950820177793
1758447536364509700,6.746509765625,0.639133769840002,1.971297004228085,1.581485931867361
1758447536374483000,6.75648291015625,0.2331494151830673,4.067456359660625,2.539104636609554
1758447536384455000,6.766454833984375,-0.7201210312217473,5.174171985414624,3.782955527424812
1758447536394428000,6.776427978515625,-0.6969247184209525,5.426747985601425,4.270816785779595
1758447536404399900,6.78639990234375,0.17159677598103878,6.721558663803338,5.040711609473824
1758447536414372900,6.796372802734375,0.7098736318431794,7.090898172152042,3.820377203324437
1758447536424344800,6.8063447265625,1.0216437254071236,5.547917035245895,3.2079473160147667
1758447536434317800,6.81631787109375,1.294162297295779,4.086493360824883,3.0933985612928865
1758447536444290000,6.8262900390625,0.681295187612623,3.0507445376977325,1.890330931764841
1758447536454261800,6.83626171875,-0.2996264321099967,2.3528458596780895,-1.107556168231368
1758447536464234800,6.84623486328125,-0.6214754366178065,1.3986384246841073,-1.4583084650099276
1758447536474207000,6.85620703125,-0.30122984871864317,0.8130722866415977,-0.11737550258040427
1758447536484179700,6.8661796875,0.5069762931913138,0.7125593637958169,0.7188268997579813
1758447536494152000,6.87615185546875,0.7365214002721011,-0.3301189663335681,1.1524310827463864
1758447536504125000,6.886125,0.9351349241249263,-0.9044117229506373,0.15352525884807108
1758447536514096600,6.8960966796875,1.1420997314114123,-1.1035083541452884,-0.8122364203393458
1758447536524070000,6.90606982421875,1.4405916065335274,-1.2605495121598242,-1.125588668528199
1758447536534041900,6.916041748046875,1.5827257027953863,-1.0530863268971442,-0.7525520592272281
1758447536544014800,6.926014892578125,1.5683254215210676,-0.4964116445571184,0.18778525584638117
1758447536553986800,6.93598681640625,0.9348772230368108,0.28600714514553544,0.9153875827342272
1758447536563958800,6.945958740234375,0.2763186948239803,0.4535989232689142,1.2064192780435086
1758447536573932000,6.95593212890625,-0.3940069166153669,0.343043622097373,1.1939292143046856
1758447536583903700,6.96590380859375,-1.3541454952239989,0.6796539962768554,1.5103566321551798
1758447536593876700,6.975876708984375,-1.6572048974573612,0.7700619969546795,1.3965958129405975
1758447536603849000,6.985848876953125,-1.964110453724861,0.40995968802869315,0.2866279073923826
1758447536613821700,6.99582177734375,-1.6807717971362173,0.031242695003747937,-1.4625783974140882
1758447536623794000,7.0057939453125,-1.7136989380955696,-0.7564554964065552,-2.825079633051157
1758447536633767000,7.015766845703125,-2.0914447480008005,-2.22849496512711,-3.3694436998724937
1758447536643738600,7.025738525390625,-2.0457785369776187,-1.8293483475357293,-2.3102421049654485
1758447536653712000,7.0357119140625,-1.9835855540454386,-1.522626331141591,-1.1686439664006232
1758447536663683800,7.045683837890625,-1.716821307899803,-1.4333160625725985,-0.22566987308263778
1758447536673656800,7.05565673828125,-1.2855343158125876,-1.519925840011239,0.7608043392658234
1758447536683628800,7.06562890625,-0.6548235794682056,-1.4021049317508936,1.2555436666965485
1758447536693600800,7.075600830078125,-0.16470526290163398,-1.0266975016653537,1.187867137786746
1758447536703574000,7.085573974609375,-0.05623794698528945,-0.9148539142489432,0.8431973757922648
1758447536713545700,7.095545654296875,0.264097438089177,-1.141771741566062,0.7304775900632142
1758447536723519000,7.10551904296875,1.1325286238592118,-1.3930039259284734,0.9285667977809905
1758447536733491000,7.115490966796875,2.09677003467679,-1.6254063221365211,0.8468053371563553
1758447536743463700,7.125463623046875,2.6106793420016765,-1.2556436199396848,0.3433198086902499
1758447536753436000,7.135435791015625,2.0153952352821825,-0.206209970331192,0.0023088614642620083
1758447536763409000,7.145408935546875,1.0170808744709938,0.8366425473213195,-0.08462474110126494
1758447536773380900,7.155380859375,0.15083470458984374,1.3590695076227188,0.08971855710893868
1758447536783353900,7.165353759765625,-0.3991946214515716,1.2842004368603228,0.5157762702405453
1758447536793325800,7.175325927734375,-0.16551672541499138,0.9226870920926332,0.8588760064393282
1758447536803299000,7.185299072265625,-0.056201779693365095,0.5832400331825017,1.0875891927406192
1758447536813270800,7.195270751953125,-0.0897253521759063,-0.06482581565380097,1.1362053396105765
1758447536823243000,7.205242919921875,-0.10743030101880431,-0.9458405886650085,1.2496893877103925
1758447536833216000,7.215216064453125,-0.23512970228008925,-1.6538883202552794,1.6142957300573586
1758447536843187700,7.225187744140625,-0.645239685499668,-2.677154678428173,1.9652134465306996
1758447536853161000,7.235160888671875,-0.9821252964239567,-4.335250971767306,2.103157689887285
1758447536863133000,7.2451328125,-0.69904141831398,-5.841211414790153,1.8934648458763956
1758447536873105700,7.255105712890625,-0.14052260594461113,-6.823444336307048,1.6029007680788636
1758447536883078000,7.265077880859375,0.3001391126061789,-7.49613024713695,1.3399705471381544
1758447536893051000,7.27505078125,0.7123556579172611,-7.879667207664251,1.0015591148860752
1758447536903022800,7.28502294921875,0.8149111925065516,-8.166051369428635,0.7208197540756315
1758447536912995800,7.294995849609375,0.5050444483458996,-8.235032551196218,0.5717096082560718
1758447536922967800,7.3049677734375,0.878747997123003,-8.30832341285646,0.31212829588446767
1758447536932941000,7.314941162109375,0.9873217690885067,-8.206049033296107,0.15079748698514886
1758447536942912800,7.324912841796875,1.3355857561826705,-5.638148510313034,-0.27309308384098113
1758447536952885000,7.334885009765625,3.125660662472248,13.953334794676303,3.4136294630795714
1758447536962858000,7.34485791015625,1.5189379980176687,21.800302678787705,4.400087601076066
1758447536972830000,7.354829833984375,2.3130746980428696,19.050187978088854,-2.4874708954840896
1758447536982803200,7.36480322265625,4.034781001505255,20.977875703823564,-6.206946761167049
1758447536992775200,7.374775146484375,0.6651426558434963,21.118158619260786,-6.757135004097223
1758447537002748000,7.384747802734375,-3.9492315467745063,16.998552385646104,-4.587897699102759
1758447537012720000,7.39472021484375,-7.330978847903013,8.803805083087086,-3.3905610144421456
1758447537022693000,7.404693115234375,-7.337655841448902,2.1666811907708645,-3.4590739941760895
1758447537032665000,7.4146650390625,-5.958005902612209,-1.580403981849551,-2.685930982340872
1758447537042638000,7.42463818359375,-5.4086827520787715,-3.973997739240527,-1.659616634774208
1758447537052610000,7.434610107421875,-5.526579648184776,-6.318103535363078,0.078688336789608
1758447537062583300,7.444583251953125,-3.8741023637712,-6.574307078397274,0.9483563708782196
1758447537072555000,7.454554931640625,-1.9853619160681961,-5.22738685825169,1.5452612106673418
1758447537082527200,7.46452734375,-0.17025997441932558,-3.2072254314810036,2.8077392066717146
1758447537092500200,7.474500244140625,1.0204306963555514,-1.1946002454340456,4.159740091082454
1758447537102472200,7.48447216796875,2.604168937194347,0.23664134895205496,4.612022086533904
1758447537112445200,7.494445068359375,3.849325065389275,1.0169295563668013,4.79726116502881
1758447537122417200,7.504417236328125,4.296500677612424,1.4186942475020885,4.707625902289152
1758447537132390100,7.51439013671875,4.044405738940835,1.2777052296221256,4.5106002321496605
1758447537142362000,7.524362060546875,3.5535406225949524,0.36172435716986656,3.444949899494648
1758447537152335000,7.534335205078125,2.756130015465617,-0.4680436282068491,2.094841258571297
1758447537162307000,7.54430712890625,1.862835022073984,-0.6173439628362656,1.4660273688241838
1758447537172280000,7.554280029296875,1.2173165196329354,-0.5175286668658257,1.123954199194163
1758447537182252300,7.564252197265625,0.7030764459837228,-0.21416706681549547,0.984145915531367
1758447537192225300,7.574225341796875,0.2643711404640227,0.04194704436957836,0.8560875447645783
1758447537202197000,7.584197021484375,-0.0072322162758558985,0.1871130556732416,0.5867760983541608
1758447537212169200,7.594169189453125,-0.3607990590184927,0.18899229354858396,0.2380376256160438
1758447537222142200,7.60414208984375,-0.5844733013045043,0.1239145489603281,0.03520560728535056
1758447537232114200,7.6141142578125,-0.620177724957466,-0.031394086173176766,-0.22788623395785687
1758447537242087200,7.624087158203125,-0.6427011069327593,-0.016489362508058547,-0.5460089114189147
1758447537252059100,7.63405908203125,-0.9553723871201276,0.36149405554533004,-0.5010454418376088
1758447537262032100,7.6440322265625,-0.9624725014489144,0.4060124117076397,-0.6389619204044341
1758447537272004000,7.654004150390625,-0.851738994166255,0.29560090292096136,-0.762179427011311
1758447537281977000,7.66397705078125,-0.6828420517284423,0.20243746605515478,-0.8696583894774317
1758447537291949000,7.673948974609375,-0.5852724888581782,0.07061433592736721,-0.8838035269469022
1758447537301922000,7.683922119140625,-0.6168138014823198,-0.015447159978747366,-0.7788587591335177
1758447537311894300,7.693894287109375,-0.6087129856783896,-0.05873685112893581,-0.7220771337255835
1758447537321867000,7.703866943359375,-0.5658521874647587,-0.12178162858486175,-0.7656769137382506
1758447537331839000,7.7138388671875,-0.5606026694387197,-0.2008423058182001,-0.798242966300249
1758447537341811200,7.723811279296875,-0.4461339211504906,-0.17304127570092678,-0.7935673757046461
1758447537351784000,7.733783935546875,-0.5046330180007964,-0.13789455899596215,-0.532800470277667
1758447537361756200,7.743756103515625,-0.44103630575053393,-0.09631927054822444,-0.2578141931012273
1758447537371729200,7.753729248046875,-0.3281090147506445,-0.10051204606294631,-0.09135200352966785
1758447537381701000,7.763701171875,-0.18828319543115793,-0.0697697017967701,0.18564415216445923
1758447537391674000,7.773674072265625,0.15242862271778285,-0.07554886972010136,0.328787425468862
1758447537401646000,7.78364599609375,0.4832663317799568,-0.035410336077213285,0.41298049715459345
1758447537411619000,7.793619140625,0.6948305226206779,0.024562778848409652,0.4977282801136374
1758447537421591000,7.803591064453125,0.8404325872540473,0.06929799263179302,0.5423617870882154
1758447537431564000,7.81356396484375,0.920177155098319,0.09776888483464717,0.5293643583491444
1758447537441536300,7.823536376953125,0.9475872131366282,0.08560673787593841,0.46106297553926706
1758447537451509000,7.833509033203125,0.8863573761481791,0.06669803926646709,0.3822399064540863
1758447537461481200,7.843481201171875,0.7909878806054592,0.030547113955020903,0.288175136834383
1758447537471453200,7.853453125,0.6623598201919346,0.004055412870645523,0.17056085706204174
1758447537481426000,7.863426025390625,0.5154805752296,0.01955927147269249,0.09172463623434304
1758447537491398100,7.873398193359375,0.3450438560038805,0.08587152629196643,0.0893845028489828
1758447537501371100,7.88337109375,0.20546938109695911,0.09734452194273471,0.10290332511365413
1758447537511343000,7.893343017578125,0.02968151010163128,-0.018300795844197273,0.12865005304962396
1758447537521316000,7.903316162109375,-0.21932371892631053,-0.03388531846702099,0.22979601310193537
1758447537531288000,7.9132880859375,-0.3577180441379547,-0.08297288224101067,0.2256847783908248
1758447537541261300,7.92326123046875,-0.4298486298471689,0.02584463535249233,0.27409020511955023
1758447537551233000,7.93323291015625,-0.6524305468518287,0.22595336619913578,0.3531830310568213
1758447537561206000,7.9432060546875,-0.9032487435858696,0.36843759107291696,0.5725350992947816
1758447537571178200,7.95317822265625,-1.016811336814612,0.5094453136533499,0.9338558440998196
1758447537581151000,7.96315087890625,-0.8604413560599088,0.24958149454593656,1.014081765720248
1758447537591123200,7.973123291015625,-0.48793834217898546,-0.40580782904624935,0.7204156302541493
1758447537601096200,7.98309619140625,-0.11736848831772803,-1.0251309830009936,0.3600187222957611
1758447537611068000,7.99306787109375,0.3170364896595478,-1.4422060559928416,-0.13003040149211884
1758447537621040000,8.0030400390625,0.6810982768010347,-1.4018682003855705,-0.5521297323867679
1758447537631013000,8.01301318359375,0.775882154475525,-1.0098965889900922,-0.7872481095552444
1758447537640985000,8.022985107421874,0.6183242060452699,-0.38627895271182056,-0.8063032308980822
1758447537650958000,8.0329580078125,0.4342179309725761,0.15851239961087701,-0.8466822952985763
1758447537660930000,8.042929931640625,0.2545201199918985,0.48483401948809624,-0.8658373698845505
1758447537670903300,8.0529033203125,0.06458448117859661,0.7806564562052488,-0.7386404382526874
1758447537680875000,8.062875,-0.06964454104714095,0.9668126495450734,-0.535612897349894
1758447537690848000,8.072847900390625,-0.10085450282506644,0.9436895481109618,-0.27289631915986534
1758447537700820200,8.0828203125,0.014244213929772376,0.6595739158004522,0.08696575126945973
1758447537710793000,8.09279296875,0.23166114938668905,0.2993634703248739,0.4014677540153265
1758447537720765200,8.10276513671875,0.4508895912449807,-0.0316933613806963,0.614334844148159
1758447537730738200,8.11273828125,0.5886053596079349,-0.25545827762484546,0.8489484866648912
1758447537740710100,8.122710205078125,0.6464006190378219,-0.39374271272122857,1.0335425452545284
1758447537750683100,8.13268310546875,0.6268658974844962,-0.5208247858017683,1.0952195414885877
1758447537760655000,8.142655029296876,0.5942541791498661,-0.6293582257568836,1.0650707792013883
1758447537770627000,8.152626953125,0.5180423885416239,-0.6397890188783407,0.9598238135710359
1758447537780600000,8.16260009765625,0.3881418970394879,-0.5630997469514608,0.7788321633875369
1758447537790572300,8.172572265625,0.22384857593961058,-0.37829438369870183,0.569891599048674
1758447537800545300,8.182545166015625,0.07088438504040241,-0.1944283471226692,0.28855478380173444
1758447537810517000,8.19251708984375,-0.12867657573036848,-0.03335398806929588,0.10393822111934423
1758447537820490200,8.202490234375,-0.3310832082558423,0.1408849729835987,-0.02630962251573801
1758447537830462200,8.212462158203126,-0.4823293431907892,0.1783563332438469,-0.1560758201137185
1758447537840435000,8.22243505859375,-0.5129805020421743,0.056768765926361084,-0.31399639131128787
1758447537850407200,8.2324072265625,-0.415334951326251,-0.07223287703990935,-0.4307897100895643
1758447537860380200,8.242380126953124,-0.28629297634959217,-0.12810673995316027,-0.4958265381455421
1758447537870352100,8.25235205078125,-0.1937444565117359,-0.05096563260555267,-0.4199430296435952
1758447537880325000,8.2623251953125,-0.15731697928123176,0.081603347453475,-0.3084244363978505
1758447537890297000,8.272297119140624,-0.11216682802140712,0.14790157374739646,-0.175351598469913
1758447537900269000,8.28226904296875,-0.05449380673170089,0.08950549888014793,-0.02151858884692192
1758447537910242000,8.292241943359375,0.05999824936687946,-0.051774026378989216,0.11287234594225883
1758447537920214300,8.30221435546875,0.13421616274416445,-0.16332710641622541,0.2727434666857123
1758447537930187000,8.31218701171875,0.16875957979373632,-0.18121113815307616,0.4405588244318962
1758447537940159000,8.322158935546875,0.19122808977663516,-0.15705577106177807,0.5552227299660444
1758447537950132200,8.33213232421875,0.21699681034870444,-0.17507599639892577,0.6129594641417264
1758447537960104000,8.34210400390625,0.20540866388566792,-0.17516776633560657,0.6722954502075911
1758447537970076700,8.35207666015625,0.21258768866956232,-0.19725275689363478,0.7028665295600891
1758447537980048600,8.362048583984375,0.20757534040026365,-0.19413959330916403,0.7043626133367419
1758447537990021600,8.372021728515625,0.2001267779599875,-0.18516776682436464,0.6329334538951515
1758447537999993900,8.381993896484374,0.18621873718202114,-0.162190211340785,0.5505921475559473
1758447538009966800,8.391966796875,0.18830540726296602,-0.15460253269076346,0.43125586629658935
1758447538019938800,8.401938720703125,0.14953881956040857,-0.13340543088316917,0.35499651021957396
1758447538029911800,8.411911865234375,0.12095679513327777,-0.1078372743844986,0.2559998371556401
1758447538039883800,8.4218837890625,0.05987659574858844,-0.08229425232708454,0.19524404741972684
1758447538049855700,8.431855712890625,0.03319982042089104,-0.019664485412836073,0.15666472591757774
1758447538059828700,8.441828857421875,0.02445340018980205,0.06208206990361213,0.10908610540181397
1758447538069801000,8.451801025390624,0.020595628783106803,0.13919278211295605,0.10143325256109237
1758447538079773700,8.461773681640626,0.007252163085341453,0.18180267430543898,0.10490502032488584
1758447538089745700,8.47174560546875,-0.03258833745904267,0.14665478855669498,0.11936433831006288
1758447538099719000,8.481718994140625,-0.037421748964861036,0.006615618747472763,0.1010986137792468
1758447538109690600,8.491690673828124,-0.013003931545093654,-0.1468202082514763,0.07952303404808043
1758447538119663600,8.50166357421875,-0.027122327138110993,-0.23282032935917377,0.07060702940374612
1758447538129635800,8.5116357421875,-0.07873743662834166,-0.2585492293775081,0.10943360366523265
1758447538139608800,8.52160888671875,-0.14238653665296733,-0.24967735613584516,0.16741028407663106
1758447538149580800,8.531580810546876,-0.19565401646010577,-0.21674422382712363,0.27328707204312086
1758447538159553800,8.5415537109375,-0.18423837701976298,-0.1453998200595379,0.3811529880002141
1758447538169525800,8.55152587890625,-0.13257657884359358,-0.10363280843198298,0.45949967174530026
1758447538179498800,8.561498779296874,0.001982771315053105,-0.10263678313195705,0.5183811920419336
1758447538189470700,8.571470703125,0.1644260075688362,-0.0862912130087614,0.5396247633397578
1758447538199443700,8.581443603515625,0.26906653173863887,-0.029386253482103344,0.5523094728678465
1758447538209415700,8.591415771484375,0.3664039663534611,-0.0023497779965400696,0.5311915737763047
1758447538219387600,8.6013876953125,0.46144203798472877,-0.10314122552275658,0.4351414755582809
1758447538229361000,8.61136083984375,0.525624368103221,-0.14069091171622275,0.27659049750268455
1758447538239332600,8.62133251953125,0.4971627551853656,-0.06750467947423458,0.12698475018590688
1758447538249305600,8.6313056640625,0.41121122245974834,0.04908171855509281,-0.011286240907013415
1758447538259277800,8.64127783203125,0.29863983222544194,0.1182154605358839,-0.12085253104120493
1758447538269250800,8.651250732421875,0.20366496202349663,0.1087386071383953,-0.18921411960572004
1758447538279222800,8.661222900390625,0.1498562880117446,0.05337970800995826,-0.20465484984368085
1758447538289195800,8.67119580078125,0.15588848084807394,-0.018985855498909947,-0.19069295998662708
1758447538299167700,8.681167724609375,0.18361651879437266,-0.07188391747176646,-0.13927578422129153
1758447538309140700,8.691140625,0.17234576771743595,-0.08558511056602,-0.06288754106760025
1758447538319112700,8.70111279296875,0.1468359903424978,-0.07592004112005234,0.019226093995571136
1758447538329086000,8.7110859375,0.04131576072871685,-0.06552958000898361,0.1259466393098235
1758447538339057700,8.7210576171875,-0.0321065452914685,-0.08447568801939487,0.2638300923898816
1758447538349030700,8.73103076171875,-0.08407930911295115,-0.11262041700780391,0.3518824698522687
1758447538359003000,8.7410029296875,-0.05520860393755138,-0.11310557017624377,0.39129882670044897
1758447538368974600,8.750974609375,-0.010592048097774386,-0.07508709742724895,0.40068361790031193
1758447538378947800,8.76094775390625,0.04823942251205444,-0.035247838991880415,0.3823623637899756
1758447538388919800,8.770919921875,0.058684244158864016,0.001048047748208046,0.3798030346959829
1758447538398892800,8.780892822265624,0.03828618377447128,-0.032604046484827995,0.40825083828419445
1758447538408864800,8.79086474609375,0.059523617592453955,-0.1397650290429592,0.4060059819668531
1758447538418837800,8.800837646484375,0.14850311983712017,-0.18074001350998878,0.33114655581563707
1758447538428810000,8.81081005859375,0.23295827652513978,-0.1563701268851757,0.25271160926520825
1758447538438782700,8.82078271484375,0.23461773416996,-0.1182020165324211,0.19022709604054688
1758447538448754700,8.830754638671875,0.20617197640836238,-0.05518412708342075,0.18099632635861634
1758447538458728000,8.84072802734375,0.14876030946858226,-0.019091069439053535,0.17627075914144516
1758447538468699600,8.85069970703125,0.061745458360388875,-0.049043140110373494,0.17467267629504202
1758447538478672600,8.860672607421876,-0.023832711008191107,-0.11522329298257827,0.1889370562300086
1758447538488644900,8.870644775390625,-0.04721592468321323,-0.16757307342290878,0.21336130339056253
1758447538498617900,8.880617919921875,-0.08327040388286114,-0.1483311973363161,0.21289982335865495
1758447538508589800,8.89058984375,-0.09196224438250064,-0.13685235646665095,0.20042963336408137
1758447538518561800,8.900561767578125,-0.06464695195555686,-0.08714870662093162,0.19190730421245097
1758447538528534800,8.91053466796875,-0.02604344586022198,-0.022790508478879926,0.1899605540588498
1758447538538506800,8.9205068359375,0.0032581980783492324,0.005256605353951454,0.19073913721591232
1758447538548479700,8.930479736328126,0.03351948082931339,-0.05248188238739967,0.18451222552508115
1758447538558451700,8.94045166015625,0.07492693842947483,-0.09600888942480086,0.18145692960768936
1758447538568424700,8.9504248046875,0.14441833474151788,-0.09160802411735057,0.19108546643555163
1758447538578396700,8.960396728515626,0.1835222646396607,-0.05491466249227524,0.2051683523237705
1758447538588370000,8.970369873046875,0.19670389083921908,-0.02963525980710983,0.2169222107425332
1758447538598341600,8.980341552734375,0.23186229798197744,-0.08863456126451492,0.21523411152511834
1758447538608315000,8.99031494140625,0.2504519207049161,-0.12752806328237057,0.14829583376199007
1758447538618286800,9.000286865234376,0.2660773598600179,-0.11699322526454925,0.07677665794938802
1758447538628259600,9.010259521484375,0.23080840501487254,-0.09484510634243488,0.051769642464816565
1758447538638231800,9.020231689453125,0.18082528064064682,-0.07132394550144672,0.0292705181479454
1758447538648204800,9.030204833984374,0.11560841984264551,-0.06954641443490982,0.04576601813584566
1758447538658176800,9.0401767578125,0.06830832400731741,-0.038158758002519604,0.07772592149823904
1758447538668149800,9.050149658203125,0.01378828685581684,-0.02939385226666927,0.11849456973820924
1758447538678121700,9.060121826171875,-0.003996449225023389,-0.03737199153900146,0.17114654799550771
1758447538688093700,9.07009375,-0.00019172317981719968,-0.03143500270545482,0.2382178044885397
1758447538698066700,9.080066650390625,0.002484144965931773,-0.03338672129511833,0.28764468321949244
1758447538708039000,9.090038818359375,0.054507323800399896,-0.07162263618707657,0.32553485341370103
1758447538718012000,9.100011962890624,0.1262983022917062,-0.0979945102840662,0.35897418167889117
1758447538727983600,9.109983642578126,0.19175773967392742,-0.09993687652349471,0.3727544313587248
1758447538737956900,9.119956787109375,0.206523274064064,-0.09078560181856155,0.36612507634684444
1758447538747928800,9.1299287109375,0.1956698716163635,-0.06839724439978599,0.38223479188755155
1758447538757901600,9.139901611328124,0.17551796801276504,-0.046879824596643443,0.36871713866665956
1758447538767873800,9.149873779296875,0.14556231714487075,-0.06547989564836025,0.35631752969026564
1758447538777846800,9.1598466796875,0.10075929882228374,-0.08967968640327453,0.3187514768838882
1758447538787818800,9.16981884765625,0.08185710301883518,-0.11751929496526717,0.25827245826274153
1758447538797791700,9.179791748046876,0.027336408280208706,-0.14592296715080738,0.18435440461486577
1758447538807763700,9.189763671875,-0.013293854402378201,-0.1486585295945406,0.12781827840059995
1758447538817735700,9.199735595703125,-0.053940337567403907,-0.11811083111763,0.09274930310696362
1758447538827708700,9.209708740234374,-0.10502170550711452,-0.09292144480347633,0.08838672398328781
1758447538837681000,9.219680908203125,-0.13365027248971165,-0.08319324699342251,0.11529928082823752
1758447538847654000,9.22965380859375,-0.13990991740636527,-0.0716518622815609,0.15653320849239824
1758447538857625600,9.23962548828125,-0.08942775746881962,-0.09356032722890377,0.19097703762501478
1758447538867598800,9.249598876953126,0.0231663560539484,-0.10943886436223983,0.19167086510807274
1758447538877570800,9.25957080078125,0.14124730348996817,-0.07743395281434058,0.16736965980529783
1758447538887543600,9.26954345703125,0.25529570747427643,-0.03836977040469646,0.10698562599122524
1758447538897515800,9.279515869140624,0.3317226021379232,0.014499649995565413,0.04390227009057998
1758447538907488800,9.28948876953125,0.338439416237548,0.058790627142786975,0.0036743045985698696
1758447538917460700,9.299460693359375,0.3148923903029412,0.04018237278461456,-0.0038958383947610854
1758447538927433700,9.309433837890625,0.2840611987095326,-0.0009165303230285644,-0.01298047760426998
1758447538937406000,9.319406005859374,0.2921094806086272,-0.0721527975410223,0.0029313772767782208
1758447538947379000,9.32937890625,0.28988369431793687,-0.06296586700081824,0.01128390281945467
1758447538957350700,9.3393505859375,0.2500994540054351,-0.03900514569878578,0.03429506831169128
1758447538967324000,9.349323974609375,0.20414193188548088,-0.0042693478822708126,0.10018442154377698
1758447538977296000,9.3592958984375,0.1295867493778467,0.0037613983601331707,0.16325257987529038
1758447538987267800,9.369267822265625,0.09632635787613689,-0.05270166261792183,0.21894114934951064
1758447538997240800,9.37924072265625,0.10550861224122345,-0.09295534707307815,0.24957594158798455
1758447539007212800,9.389212890625,0.1095669477213174,-0.07086977199316025,0.27775895676016804
1758447539017185800,9.399185791015626,0.06423778663277625,-0.01675064379274845,0.3222165226459503
1758447539027157800,9.40915771484375,0.015740589967370034,-0.050263037294149396,0.35400691466033457
1758447539037130800,9.419130859375,-0.010937646665051579,-0.10148527500927447,0.3476815110310912
1758447539047102700,9.429102783203126,-0.024838088658452034,-0.14185937097370624,0.3392044823259115
1758447539057075700,9.43907568359375,-0.020367080724239348,-0.16394845318496226,0.30931115610450505
1758447539067048000,9.4490478515625,-0.04884096860177815,-0.15622282736897466,0.23910277062952517
1758447539077021000,9.45902099609375,-0.07244739657342433,-0.1378355222851038,0.21554244682192802
1758447539086992600,9.46899267578125,-0.12495382888019084,-0.12791677033901214,0.20356442425847052
1758447539096966000,9.4789658203125,-0.15615268474221228,-0.10334347009658813,0.22544161728471515
1758447539106937900,9.488937744140625,-0.17883965978138147,-0.10233692340254782,0.26932372137010097
1758447539116910600,9.49891064453125,-0.13125197917632758,-0.1204547638952732,0.26211189029514786
1758447539126882800,9.5088828125,-0.01980184805691242,-0.14503917005360126,0.22090806550830602
1758447539136854800,9.518854736328125,0.09950725293457507,-0.11176000078618525,0.1779635345339775
1758447539146827800,9.528827880859374,0.15435403782241044,-0.051312838608026504,0.12290186478644609
1758447539156799700,9.5387998046875,0.16373276460766792,0.009295067089796065,0.1051876366585493
1758447539166772700,9.548772705078125,0.1454465818107128,-0.013587795847654342,0.10971095930188894
1758447539176744700,9.55874462890625,0.18090477561764418,-0.08128829015493393,0.0892258051559329
1758447539186717700,9.5687177734375,0.25982056448757646,-0.1001683471918106,0.07489478972554206
1758447539196690000,9.57868994140625,0.3622269729297608,-0.10888473761081695,0.04012567416131496
1758447539206662700,9.58866259765625,0.4257604106854647,-0.05413140316009521,-0.009884265154600143
1758447539216634600,9.598634521484374,0.4306364922892302,-0.011854688444733618,-0.036080782684683795
1758447539226607900,9.60860791015625,0.384145959271118,0.05263035094738006,-0.04184679886549711
1758447539236579600,9.61857958984375,0.3230184866786003,0.09262100055217742,-0.008211948028206824
1758447539246552800,9.628552734375,0.26080606839358805,0.03409866895675659,0.018207856863737104
1758447539256524800,9.63852490234375,0.22111820112764835,-0.07500351079702376,0.0626522710070014
1758447539266497800,9.648497802734376,0.26682598627023396,-0.10456161371469497,0.09257453106194734
1758447539276469800,9.6584697265625,0.30609014823138714,-0.05411211393773555,0.09894874226897954
1758447539286441700,9.668441650390625,0.3291226487725973,0.03903437179327011,0.09075111502707003
1758447539296415000,9.6784150390625,0.31344343360364435,0.08883505227267742,0.09575579144656658
1758447539306386700,9.68838671875,0.29134558356404305,0.0965080711185932,0.10155483311414717
1758447539316359700,9.698359619140625,0.28014322154819965,0.02220131041407585,0.09823445651978253
1758447539326332000,9.708331787109374,0.28220658381879327,-0.024579145461320874,0.07845657386034727
1758447539336304600,9.7183046875,0.296364288508892,-0.03956453314721584,0.0719867933243513
1758447539346276900,9.72827685546875,0.2353459753792733,-0.04660509930849075,0.10659399632513522
1758447539356249900,9.738249755859375,0.1489016907006502,-0.03961363298594951,0.1490712020486593
1758447539366221600,9.7482216796875,0.07514445363767444,-0.088138302180171,0.18356530006378888
1758447539376194800,9.75819482421875,0.045703839619830246,-0.1185287642687559,0.17965543314367532
1758447539386166800,9.768166748046875,0.012737901020050048,-0.10892682318687438,0.18394027085602283
1758447539396139800,9.778139892578125,0.01300619656741619,-0.09542612110078334,0.2063961405530572
1758447539406111700,9.78811181640625,0.033595980131626124,-0.0988438205897808,0.20632395209968088
1758447539416084700,9.798084716796875,0.054987143206596374,-0.11564765587449073,0.22133768909722565
1758447539426057000,9.808056884765625,0.047718028986454004,-0.08786240784823894,0.27144699713438747
1758447539436028700,9.818028564453124,0.03008716829307377,-0.08163432711362838,0.32497166657298804
1758447539446001700,9.828001708984376,0.002680690451338887,-0.14489420862495897,0.3687716453328728
1758447539455974000,9.837973876953125,0.0026981530427932737,-0.2228507240086794,0.3853782044798136
1758447539465946600,9.847946533203125,0.04576338778734207,-0.2503542324841022,0.42706484434753655
1758447539475918800,9.8579189453125,0.06595335837900639,-0.22127426847219467,0.493483336020261
1758447539485891800,9.867891845703125,0.089511417164281,-0.12173954300880431,0.6183148536950349
1758447539495863600,9.877863525390625,0.11406009442210197,0.04142272823452949,0.7146563360750675
1758447539505836800,9.8878369140625,0.16601130399890243,0.05523614953160286,0.7440820447847246
1758447539515808800,9.897808837890626,0.2836141125291586,-0.05402443565428257,0.641038872808963
1758447539525781800,9.90778173828125,0.43079263269901275,-0.11746785703897475,0.40250089645534753
1758447539535753700,9.917753662109375,0.5146463894277811,0.02412146482169628,0.017895868305116892
1758447539545726700,9.927726806640624,0.5182774394065142,0.11264964310228824,-0.41264629676416514
1758447539555699000,9.937698974609376,0.31129940731227396,0.19365093300938604,-0.6160682438120245
1758447539565671700,9.947671630859375,0.04334178666360676,0.22719605973660945,-0.6601900018721819
1758447539575644000,9.957643798828125,-0.15569610008113086,0.1567050579279661,-0.7203849428549408
1758447539585616000,9.967615966796876,-0.38007944048456843,-0.05447568655312061,-0.7343322196647525
1758447539595588600,9.977588623046875,-0.6465490145325661,-0.3669721946954727,-0.5924158578068017
1758447539605560800,9.987560791015625,-0.9240419407676905,-0.34172961688935755,-0.18377163629084825
1758447539615533800,9.997533935546874,-0.9879214885473251,-0.1961889270544052,0.1448652747914195
1758447539625505800,10.007505859375,-0.8612566910307854,-0.16264204676151275,0.27204437850564717
1758447539635478800,10.017478759765625,-0.6676671328198164,-0.11731938847899437,0.42538609748035666
1758447539645450800,10.02745068359375,-0.43723698653280735,0.008237082469463348,0.5677665697187185
1758447539655424000,10.037424072265624,-0.18142331959903238,-0.043321255332231516,0.5946558918185532
1758447539665395700,10.047395751953125,-0.002288403198122978,-0.1903770259052515,0.587034749290347
1758447539675368700,10.05736865234375,0.15587795945405958,-0.2858183445751667,0.5853241459801792
1758447539685341000,10.0673408203125,0.27005612729787826,-0.26713702498078346,0.6118095634542405
1758447539695313700,10.077313720703126,0.38425833360441025,-0.19035013789832592,0.6173863406732678
1758447539705286000,10.087285888671875,0.5148990490145982,-0.112045831990242,0.6309652225621044
1758447539715259000,10.0972587890625,0.6549632071346044,-0.006478840625286102,0.6058433485262096
1758447539725230600,10.107230712890624,0.7332878982435912,0.09895078809559345,0.5137659533314407
1758447539735202800,10.117202880859375,0.6982043099027126,0.1588748031824827,0.3282463043294847
1758447539745175800,10.12717578125,0.566199539597705,0.14455986210405825,0.1008272494919598
1758447539755147800,10.137147705078124,0.41717626834399996,0.08734978215098381,-0.08811828230544924
1758447539765120800,10.147120849609376,0.22239545452184975,0.033846740022301675,-0.18208192963823674
1758447539775092700,10.1570927734375,0.10210187253765761,-0.002709258958697319,-0.2122431130155921
1758447539785066000,10.16706591796875,0.0019611440051347014,-0.024985388174653053,-0.21243922010958194
1758447539795037700,10.17703759765625,-0.08037460937611758,-0.0318587810754776,-0.14936156329736114
1758447539805010700,10.1870107421875,-0.16508059902004896,-0.01891045217514038,0.005278086533397436
1758447539814982700,10.196982666015625,-0.17353870382905007,-0.01185293487906456,0.1841116819001734
1758447539824955600,10.20695556640625,-0.12307334889583289,-0.09717384155094623,0.29425124187767504
1758447539834927900,10.216927978515624,0.0008205956678837538,-0.23863281503021716,0.34174671415463087
1758447539844900900,10.22690087890625,0.14600830734670162,-0.2712216639459133,0.36408845595270395
1758447539854872600,10.23687255859375,0.19549867976792157,-0.2256552600353956,0.376864497026056
1758447539864844800,10.2468447265625,0.1319523094654083,-0.12468202620148658,0.4292318131230771
1758447539874817800,10.25681787109375,-0.020810148316621778,-0.0451782813757658,0.4829425066530704
1758447539884789800,10.266789794921875,-0.12828794173896313,-0.09066752839684486,0.508796932747215
1758447539894762800,10.2767626953125,-0.172225867664814,-0.17618015824854372,0.5610100811958313
1758447539904735000,10.28673486328125,-0.13801029433012008,-0.24843933877348898,0.5848638349920511
1758447539914707700,10.296707763671876,-0.08570427996627986,-0.28374095377922054,0.5953178628586232
1758447539924679700,10.3066796875,-0.04021152581386268,-0.2570353176832199,0.5664731689073145
1758447539934653000,10.31665283203125,-0.05883446628451347,-0.14433365213274954,0.5665861277624964
1758447539944624600,10.326624755859376,-0.0700789869416505,-0.04580956501662731,0.621658611164987
1758447539954597600,10.33659765625,-0.047041664094850416,-0.02038870803415775,0.6399740200564265
1758447539964569900,10.34656982421875,0.08201485086381435,-0.05695055223405361,0.5547187259666622
1758447539974542300,10.356542236328124,0.22527013317532837,-0.1166033491641283,0.42581250619888306
1758447539984514600,10.3665146484375,0.2922480853617191,-0.1306850660085678,0.2524925596870482
1758447539994487300,10.3764873046875,0.2699007175404578,-0.0672293696641922,0.12490750552043318
1758447540004459300,10.386459228515625,0.22731815174631773,0.0129752169072628,0.01893792470395565
1758447540014431500,10.396431396484376,0.0959328285139054,0.037519291055202485,-0.09416530738472938
1758447540024404200,10.406404296875,-0.012945990812778472,-0.021228081467747687,-0.18609788728132842
1758447540034376400,10.41637646484375,-0.01594458810687065,-0.09567571194767951,-0.2373348841741681
1758447540044349400,10.426349365234374,0.013487842604517936,-0.12605273003280162,-0.2860366635009646
1758447540054321400,10.4363212890625,0.06855798791944981,-0.12893617651462555,-0.26888226121291514
1758447540064294400,10.44629443359375,0.1109690696042031,-0.09167758222222328,-0.20804361549913883
1758447540074266400,10.456266357421875,0.10283500911779701,-0.06302198110222816,-0.07504062793701886
1758447540084239400,10.4662392578125,0.059504985957220195,-0.043210196173191065,0.09230389742702245
1758447540094211300,10.47621142578125,0.03407010044939816,-0.03329319779276848,0.191050248991698
1758447540104184300,10.486184326171875,0.036229908831790086,-0.02797054146528244,0.19562690925747156
1758447540114156500,10.496156494140624,0.022031287609413266,-0.021072598645091055,0.19808818480446932
1758447540124129300,10.50612939453125,0.0013098404895514248,-0.044833413460850714,0.22608766010329126
1758447540134101500,10.5161015625,-0.01695113480091095,-0.07382043849229812,0.2573107736237347
1758447540144073500,10.526073486328125,0.006841244196891784,-0.1261444999694824,0.2773927537962794
1758447540154046200,10.536046142578124,0.0777992789953947,-0.15753215640187263,0.2730599852889776
1758447540164018400,10.546018310546875,0.1558381389003247,-0.13491700448989868,0.2568044315367937
1758447540173991400,10.555991455078125,0.2090069075733423,-0.07445581378638744,0.25372794670090076
1758447540183963400,10.56596337890625,0.2170464216440916,-0.0014689035087823868,0.29712518987879155
1758447540193936400,10.575936279296876,0.20833419594354927,0.029650457376241682,0.30361791289895773
1758447540203908400,10.585908447265625,0.23076449280790984,-0.016582301488518712,0.29382658672481776
1758447540213881600,10.595881591796875,0.2402425152491778,-0.0824222626209259,0.24521628507375715
1758447540223853300,10.605853271484374,0.23046529066562652,-0.10695055467784405,0.20700550462305545
1758447540233826300,10.615826416015626,0.17669453751146794,-0.06324877559542656,0.2029588595807552
1758447540243798500,10.625798583984375,0.0964472808420658,0.007900982382893561,0.19359248082041738
1758447540253771300,10.635771240234375,0.018148308696225284,-0.010367664757370948,0.14696809228956698
1758447540263743500,10.645743408203124,-0.002664177707955241,-0.015320318728685379,0.09640636430978775
1758447540273715500,10.655715576171875,0.03392974213063717,-0.05143558820486068,0.032713936600089075
1758447540283688200,10.665688232421875,0.09318564869761467,-0.07654138788878917,-0.017341303162276743
1758447540293660400,10.675660400390624,0.16334471513815224,-0.032037060251832006,-0.052046998101472855
1758447540303633400,10.68563330078125,0.20059556451551616,-0.005553542473912239,-0.09832418062984943
1758447540313605400,10.69560546875,0.18760639214813707,-0.037758360508084295,-0.1230342589944601
1758447540323578400,10.705578369140625,0.17409115008004009,-0.06462006394863128,-0.10658961241096257
1758447540333550300,10.71555029296875,0.0757874277163297,-0.04610708665847778,-0.0675035104304552
1758447540343523600,10.725523681640626,0.013838555738329886,-0.04234218116700649,-0.021097148564457893
1758447540353495300,10.735495361328125,0.04675524836890399,-0.07249474284648895,0.027698446525633334
1758447540363468300,10.74546826171875,0.1052361519753933,-0.06174246268570423,0.05805033016949892
1758447540373440500,10.7554404296875,0.14700374812483788,-0.014870236873626708,0.08451660455167292
1758447540383413200,10.765413330078125,0.14924940815977752,0.000405073669552803,0.0995344332024455
1758447540393385500,10.775385498046875,0.10399937672205269,-0.03280161488354206,0.12226765853613614
1758447540403357400,10.785357421875,0.07265322134383022,-0.08582008836567401,0.16865531570166348
1758447540413330400,10.795330322265626,0.10230718585141002,-0.1331523329049349,0.20372867490947244
1758447540423302400,10.805302490234375,0.13121003973074258,-0.11362404109239578,0.18589403527230022
1758447540433275400,10.815275390625,0.19018771387822925,-0.06314999139606953,0.12838731046020985
1758447540443247400,10.825247314453126,0.17224632593095301,-0.016434417450428007,0.07016308502852917
1758447540453220400,10.835220458984375,0.1178232463479042,-0.0055599722146987916,0.030529578298330307
1758447540463192600,10.845192626953125,0.05931384729929268,-0.02330021156668663,0.0065688569962978356
1758447540473165600,10.85516552734375,0.06262574832625686,-0.03875380128622055,0.02217208431959152
1758447540483137300,10.86513720703125,0.10580956794917583,-0.037439796078205106,0.030732115133106707
1758447540493110500,10.875110595703125,0.14231997422277926,-0.04960135851502418,0.025336978091299533
1758447540503082500,10.88508251953125,0.12123152042143046,-0.02767711147665977,0.061144789053499696
1758447540513055200,10.89505517578125,0.05424713849425315,-0.03282441123723984,0.12314648719727993
1758447540523027500,10.90502734375,-0.0009427607428282499,-0.0736123486995697,0.20999562634974717
1758447540532999200,10.914999267578125,-0.024768457488343117,-0.0881862329751253,0.28809038116037844
1758447540542972400,10.924972412109375,-0.004750920854136347,-0.10598550903797149,0.34033290183395143
1758447540552944400,10.9349443359375,0.029993644790723917,-0.12911913186609744,0.3724897890731692
1758447540562917400,10.94491748046875,0.09778700501322746,-0.14740531466305254,0.40253275289833546
1758447540572889300,10.954889404296875,0.1341010849971324,-0.13145429681539536,0.40562691952139135
1758447540582862300,10.9648623046875,0.1306207686007023,-0.13437807530760765,0.41931817574352026
1758447540592834600,10.97483447265625,0.09830138427615165,-0.11902619239687919,0.4097796552866697
1758447540602807300,10.984807373046875,0.08554412096850574,-0.08709960678219794,0.37960166690498587
1758447540612779300,10.994779296875,0.07308226041086018,-0.08557283560633659,0.3498649925500154
1758447540622752500,11.00475244140625,0.04983750535845756,-0.08415770811140537,0.30112580382227894
1758447540632724200,11.01472412109375,0.03040390609204769,-0.09904781872928142,0.24881869347989558
1758447540642697200,11.024697265625,0.034036198179796334,-0.10649112047255038,0.22549977721273898
1758447540652669400,11.03466943359375,0.03348674760349095,-0.12055647070407867,0.20784020188152788
1758447540662641400,11.044641357421876,0.033353330482169985,-0.1258399640649557,0.18456483249515293
1758447540672614400,11.054614501953125,0.028874796828627584,-0.10121054972112178,0.16510843687504528
1758447540682586400,11.06458642578125,0.0032880086947232484,-0.0917635069400072,0.12781915518343448
1758447540692559400,11.074559326171874,-0.041779871109127995,-0.0832236421316862,0.12327712783962487
1758447540702531300,11.08453125,-0.08214045000486075,-0.053069911408424375,0.1599453550234437
1758447540712504300,11.09450439453125,-0.09682838911414146,-0.07383329797387123,0.18151158240437507
1758447540722476500,11.1044765625,-0.00751285984814167,-0.08048164994716644,0.22052637271434067
1758447540732449300,11.11444921875,0.09826872411556542,-0.06074935999512672,0.24500205780118703
1758447540742421500,11.12442138671875,0.21264738296754657,-0.06927052010297775,0.2618745744079351
1758447540752394500,11.13439453125,0.28970483061969277,-0.06181377435624599,0.26436522217988967
1758447540762366200,11.1443662109375,0.33504495149366553,-0.0707365010023117,0.2640244459182024
1758447540772338400,11.15433837890625,0.3542068211466074,-0.0785837073713541,0.22025690812319515
1758447540782311400,11.1643115234375,0.3300630714278668,-0.02278700134754181,0.20809505342543125
1758447540792283400,11.174283447265625,0.25830899088084697,-0.01930909610390663,0.18680209002792833
1758447540802256400,11.18425634765625,0.1979495069861412,-0.048938510692119595,0.16817396192550657
1758447540812228400,11.194228271484375,0.16891279759407044,-0.07628653634488582,0.13311901515722274
1758447540822201600,11.20420166015625,0.1481469998758286,-0.08388532091081143,0.09214870686531067
1758447540832173300,11.21417333984375,0.12864742270112037,-0.04844985039234161,0.07239829673469066
1758447540842146300,11.224146240234376,0.08803959104605019,-0.035277065086364745,0.041138066074252126
1758447540852118500,11.234118408203125,0.04545125309824943,-0.02702420052587986,0.017253332617878914
1758447540862091300,11.24409130859375,0.02153904711306095,-0.07090484330654144,0.007326105104386806
1758447540872063500,11.2540634765625,0.010921280052140355,-0.09301438378393649,0.009962883348762988
1758447540882036500,11.264036376953126,0.05188450101613998,-0.07203355507552624,0.03982815251946449
1758447540892008200,11.27400830078125,0.07375372993163765,-0.03297580240666866,0.07233253802210092
1758447540901980400,11.28398046875,0.12165602944381534,-0.004091068705916404,0.0774137868091464
1758447540911953400,11.293953369140626,0.1587748499393463,-0.016102993538975714,0.07679331682324408
1758447540921925400,11.30392529296875,0.1560825421154499,-0.024095161336660384,0.1009744028776884
1758447540931898400,11.3138984375,0.12872107245922088,0.0008843816190958022,0.16514438497126102
1758447540941870300,11.323870361328124,0.12563187427222727,0.012186112356185913,0.2325911967784166
1758447540951843600,11.333843505859376,0.10933825353197753,0.00005085340440273285,0.31756022127270694
1758447540961815300,11.343815185546875,0.1277227821368724,-0.06132452953457832,0.36316637267172336
1758447540971789000,11.3537890625,0.17982757484018802,-0.09167758222222328,0.37902269797325133
1758447540981761300,11.36376123046875,0.1861422378797084,-0.06151040749549865,0.3629530221819877
1758447540991734000,11.373734130859376,0.15120529146790504,-0.014963760375976562,0.31656215014606714
1758447541001706200,11.383706298828125,0.10789631109535694,0.04703647646307945,0.2611877611875534
1758447541011678200,11.39367822265625,0.07715572039484977,0.09739946700036525,0.1766106586202979
1758447541021651000,11.40365087890625,0.05358261017091572,0.12497136453688144,0.09810615396499633
1758447541031623200,11.413623046875,-0.01812836188673973,0.09222703279852866,0.07363806766271591
1758447541041596200,11.42359619140625,-0.07621697824001311,0.04109305788874626,0.022782909694314003
1758447541051568000,11.433568115234374,-0.11595343388803303,-0.022958266261219978,-0.0030967969715595244
1758447541061541000,11.443541015625,-0.10500475437231362,-0.3025216420948505,-0.15834639539420603
1758447541071513000,11.45351318359375,-0.0373573784917593,-0.7189110709100961,-0.2839268317401409
1758447541081486000,11.463486083984375,-0.049205564130470156,-0.7166875496417283,-0.11545067199766636
1758447541091458000,11.4734580078125,-0.027992168775200842,-0.37708676147460934,0.1428454594016075
1758447541101431000,11.48343115234375,0.20191256539821623,-0.2678489726424217,0.2873185200050473
1758447541111403000,11.493403076171875,0.3770621384900063,-0.3486205454468727,0.4169041003391146
1758447541121375000,11.503375,0.4318873691331595,-0.3961889368295669,0.6425570222869516
1758447541131348200,11.51334814453125,0.30683022600896653,-0.013584288716316222,0.966153308853507
1758447541141320000,11.52331982421875,0.14661730609051882,0.5622533592551946,1.2240341374501584
1758447541151293000,11.53329296875,0.0989794296681881,0.6598568243950605,1.147402148668468
1758447541161265200,11.54326513671875,0.12285663740523159,0.2519435475021601,0.9185337718054651
1758447541171238100,11.553238037109375,0.15046937840878963,-0.10788695874512196,0.6868380625620484
1758447541181210000,11.563210205078125,0.17431144176721572,-0.2558276954591274,0.4181114303022623
1758447541191183000,11.57318310546875,0.19771219109892843,-0.27627777829170225,0.1563943845435977
1758447541201155000,11.583155029296876,0.17698730991296469,-0.2529232061892748,-0.12559475713223217
1758447541211128000,11.593128173828125,0.08675123173594475,-0.2022328833937645,-0.3070864657923579
1758447541221100000,11.60310009765625,-0.028537454633042216,-0.12270868030190467,-0.37361879310309887
1758447541231073000,11.613072998046874,-0.0940385391999036,-0.03382511271238327,-0.39839784505069253
1758447541241045000,11.623044921875,-0.1670143435616046,0.0258504805713892,-0.3299123378455639
1758447541251017200,11.633017333984375,-0.23722535938508807,0.06054010115861892,-0.20845833377987144
1758447541260990200,11.642990234375,-0.24905600936710834,-0.022864158236980438,-0.05901771389693022
1758447541270962000,11.6529619140625,-0.1882605452079326,-0.11442425155937672,0.1324199269771576
1758447541280935200,11.66293505859375,-0.012824410259723662,-0.13238953183889388,0.2391901566520333
1758447541290907100,11.6729072265625,0.17148118677735327,-0.06381283921897411,0.3572948502898216
1758447541300880100,11.682880126953124,0.2876525742650032,-0.012079729372262954,0.45494975335597987
1758447541310852000,11.69285205078125,0.35186405741274357,0.021933599388599394,0.4976943778440356
1758447541320825000,11.7028251953125,0.3910229323685169,-0.0058352820247411724,0.46504415412992234
1758447541330797300,11.71279736328125,0.3846698370147496,-0.08743453782498836,0.38936259794086214
1758447541340770000,11.72277001953125,0.37418877501077946,-0.1361532682865858,0.28447072935849427
1758447541350742000,11.732741943359375,0.3186649676442146,-0.12032266194820403,0.1689145511597395
1758447541360714200,11.74271435546875,0.27337102399952706,-0.1091226380199194,0.0774096951559186
1758447541370687000,11.75268701171875,0.20836459108181296,-0.11256488742828369,-0.023436405166983604
1758447541380659200,11.7626591796875,0.16757482698857784,-0.0792810419857502,-0.08800035501420497
1758447541390632200,11.772632080078125,0.11740290204398333,-0.059057753646373744,-0.1169207445502281
1758447541400604000,11.78260400390625,0.0724140788257122,-0.031554829692840576,-0.15178513718247413
1758447541410577200,11.7925771484375,0.042972880285978315,0.005339022940397262,-0.14474457102119923
1758447541420549000,11.802549072265625,-0.020320830429717898,0.008325929796695709,-0.0997854853540659
1758447541430522000,11.812522216796875,-0.08295059734396636,0.0038531682968139646,-0.045372634904086585
1758447541440494000,11.822494140625,-0.16752857669405638,-0.04348901311457157,0.025653204433619976
1758447541450466000,11.832466064453126,-0.2653168238162994,-0.06796352915763855,0.14918489155620335
1758447541460439300,11.842439208984375,-0.3401454895030707,-0.09088497053980826,0.29531653302162886
1758447541470411000,11.852410888671875,-0.3653296881854534,-0.09596505028307438,0.4261255176708102
1758447541480384000,11.862384033203124,-0.32001923179738223,-0.15424071364104747,0.5175532167851925
1758447541490356200,11.872356201171876,-0.2692744754008949,-0.1863806497454643,0.6172440095931291
1758447541500329000,11.882328857421875,-0.1990518422048539,-0.19976035580039023,0.687530721001327
1758447541510301200,11.89230126953125,-0.1002594595413655,-0.20402385846376417,0.7580150008082389
1758447541520274200,11.902274169921874,0.012614055444672702,-0.18453239153027534,0.7912070763140916
1758447541530246100,11.91224609375,0.1887177143909037,-0.15145838944613932,0.7202642390847206
1758447541540219100,11.92221923828125,0.38033261152803893,-0.12585223902463913,0.5438800826966762
1758447541550191000,11.932191162109374,0.5176817385356873,-0.06961772610545158,0.33176001153886314
1758447541560163000,11.9421630859375,0.5098748641770333,-0.02327741521298885,0.1208908172249794
1758447541570136000,11.952135986328125,0.4404138630032539,0.04069090682864189,-0.10431377643346786
1758447541580108300,11.9621083984375,0.3718563865404576,0.07185819850862026,-0.33178631502389905
1758447541590081300,11.972081298828124,0.29685762498378754,0.08351765664219855,-0.5287713608920573
1758447541600053000,11.982052978515625,0.25046463405601677,0.08760872534811497,-0.6666723496288061
1758447541610026200,11.992026123046875,0.1679425643224269,0.10267886870801449,-0.7531254752010107
1758447541619998200,12.001998291015624,0.07393215523846447,0.08515548697710036,-0.7695683682188391
1758447541629971000,12.011970947265626,-0.01237849312312901,0.06559504646062851,-0.7402370597943663
1758447541639943200,12.021943115234375,-0.05115370252355933,0.05077975464463234,-0.6508399897247552
1758447541649916200,12.031916259765625,-0.05337729685716331,0.04348901311457157,-0.48507688833326096
1758447541659888000,12.04188818359375,-0.03422368357591331,0.01290682784616947,-0.2565598091259599
1758447541669860000,12.051860107421875,-0.007680033108592033,0.005962123274803161,-0.05657704274654388
1758447541679833000,12.0618330078125,0.05046469734609127,0.0335404505521059,0.15386457380503415
1758447541689805000,12.07180517578125,0.06102116267383098,-0.04265490037798881,0.3467053594753146
1758447541699778000,12.081778076171876,0.034866146197915074,-0.11988543957471846,0.5587094030380249
1758447541709750300,12.091750244140625,0.05049925720281899,-0.17117840443849563,0.7282096451312303
1758447541719723000,12.101722900390625,0.14098675285764037,-0.1719680935114622,0.8294862458258867
1758447541729695000,12.111695068359374,0.2226894690323621,-0.1314917062163353,0.8781722430616616
1758447541739668200,12.121668212890626,0.2568880912322551,-0.12060907767415047,0.8810957292929291
1758447541749640000,12.131639892578125,0.2456371408343315,-0.10759645136594771,0.8830100384816527
1758447541759613000,12.141613037109375,0.21602350833714007,-0.1314431908994913,0.8416536534816026
1758447541769585200,12.151585205078124,0.22265958535075187,-0.17476678431928155,0.8017147340640425
1758447541779556900,12.161556884765625,0.22297814978063105,-0.23339140724539756,0.6824763602212071
1758447541789530000,12.171530029296875,0.22937515734136102,-0.24511808539628982,0.5907783197328448
1758447541799502000,12.181502197265624,0.19197335518598554,-0.26227555642426015,0.5010328746169805
1758447541809475000,12.19147509765625,0.13969897806942463,-0.2256809789985418,0.44544279708117246
1758447541819447000,12.201447021484375,0.08622983821034431,-0.1665215185433626,0.43582010547220706
1758447541829420000,12.211419921875,0.059212067425251,-0.1418529412329197,0.38685032285898924
1758447541839392300,12.221392333984374,0.0822919142395258,-0.1404489196538925,0.3089388156607747
1758447541849365000,12.231364990234376,0.12462890777476131,-0.1537216582030058,0.20849691222459077
1758447541859337200,12.241337158203125,0.14849953964054582,-0.10478197846710681,0.12317629781365394
1758447541869309200,12.25130908203125,0.1069260047584772,-0.035977906832098956,0.04336392543017864
