time,seconds_elapsed,z,y,x
1758447529641825500,0.023825439453125,-0.22998753190040588,-0.08915945142507553,0.4325486719608307
1758447529651797500,0.033797607421875,-0.2252720296382904,-0.09258370846509933,0.30050045251846313
1758447529661770500,0.0437705078125,-0.22055292129516602,-0.116033636033535,0.16754800081253052
1758447529671742500,0.053742431640625,-0.2214408963918686,-0.15728051960468292,0.07094980776309967
1758447529681715500,0.063715576171875,-0.22028082609176636,-0.16340738534927368,0.02106560580432415
1758447529691687700,0.073687744140625,-0.22055542469024658,-0.13431094586849213,0.014958346262574196
1758447529701659400,0.083659423828125,-0.22347478568553925,-0.09680431336164474,0.03844103589653969
1758447529711632400,0.09363232421875,-0.2190905660390854,-0.06316456198692322,0.0843961089849472
1758447529721604600,0.1036044921875,-0.20240719616413116,-0.03257682919502258,0.13618554174900055
1758447529731577300,0.113577392578125,-0.1814388781785965,-0.023170912638306618,0.17729197442531586
1758447529741549600,0.123549560546875,-0.1617719680070877,-0.045006170868873596,0.19431117177009583
1758447529751522600,0.1335224609375,-0.14615637063980103,-0.06930649280548096,0.18106426298618317
1758447529761494300,0.143494384765625,-0.12438955903053284,-0.09956452995538712,0.1433911919593811
1758447529771467500,0.153467529296875,-0.10731104016304016,-0.12329793721437454,0.08520489186048508
1758447529781439500,0.163439453125,-0.1091984212398529,-0.12648653984069824,0.014360278844833374
1758447529791412500,0.17341259765625,-0.12387575954198837,-0.12391502410173416,-0.05516429618000984
1758447529801384400,0.183384521484375,-0.14471659064292908,-0.13455353677272797,-0.11436796188354492
1758447529811356700,0.193356689453125,-0.16258034110069275,-0.15166634321212769,-0.15906746685504913
1758447529821329700,0.20332958984375,-0.18102219700813293,-0.1729857474565506,-0.1881185621023178
1758447529831301400,0.21330126953125,-0.20438040792942047,-0.19338871538639069,-0.20085370540618896
1758447529841274600,0.223274658203125,-0.228042870759964,-0.22047120332717896,-0.1980390101671219
1758447529851246600,0.23324658203125,-0.254075288772583,-0.2519235908985138,-0.1812012940645218
1758447529861219300,0.24321923828125,-0.2731560468673706,-0.28911542892456055,-0.14821352064609528
1758447529871191600,0.253191650390625,-0.2872970998287201,-0.30841657519340515,-0.11389366537332535
1758447529881164500,0.26316455078125,-0.29491162300109863,-0.3114382028579712,-0.09257452934980392
1758447529891136500,0.273136474609375,-0.29821327328681946,-0.2937641143798828,-0.08607286959886551
1758447529901109500,0.283109619140625,-0.30427542328834534,-0.2492043524980545,-0.0888015478849411
1758447529911081500,0.29308154296875,-0.3101806342601776,-0.21594329178333282,-0.08959831297397614
1758447529921054500,0.303054443359375,-0.30343377590179443,-0.1868716925382614,-0.07450298219919205
1758447529931026400,0.3130263671875,-0.29312244057655334,-0.15785245597362518,-0.038137536495923996
1758447529940998700,0.32299853515625,-0.2842860817909241,-0.13716475665569305,0.029208479449152946
1758447529950971400,0.332971435546875,-0.27309882640838623,-0.12308217585086823,0.11312900483608246
1758447529960943000,0.342943115234375,-0.25071361660957336,-0.10453778505325317,0.19109703600406647
1758447529970916000,0.352916015625,-0.21608507633209229,-0.08476249873638153,0.24005341529846191
1758447529980888000,0.36288818359375,-0.17535282671451569,-0.07553064823150635,0.251855731010437
1758447529990861000,0.372861083984375,-0.1356770247220993,-0.057309892028570175,0.22773505747318268
1758447530000833000,0.3828330078125,-0.09538232535123825,-0.04632701724767685,0.18533672392368317
1758447530010806000,0.392805908203125,-0.054474420845508575,-0.054732535034418106,0.14565743505954742
1758447530020778200,0.4027783203125,-0.0254955030977726,-0.05896482989192009,0.11341960728168488
1758447530030751000,0.4127509765625,-0.008524581789970398,-0.05548766255378723,0.09043072164058685
1758447530040723200,0.42272314453125,-0.0016046243254095316,-0.05764003098011017,0.07831253856420517
1758447530050695200,0.432695068359375,0.0020764321088790894,-0.05409249663352966,0.06949037313461304
1758447530060668000,0.44266796875,0.000025265617296099663,-0.04373812675476074,0.04863116890192032
1758447530070640000,0.45264013671875,-0.005601611919701099,-0.032007139176130295,0.017371073365211487
1758447530080613000,0.462613037109375,-0.02055206522345543,-0.02517985738813877,-0.023923903703689575
1758447530090585000,0.472585205078125,-0.04036811739206314,-0.03761893883347511,-0.06659629195928574
1758447530100558000,0.48255810546875,-0.05896976590156555,-0.06997927278280258,-0.10304990410804749
1758447530110530000,0.492530029296875,-0.07120531052350998,-0.09746964275836945,-0.1263587325811386
1758447530120503300,0.50250341796875,-0.07701606303453445,-0.1198631003499031,-0.14270973205566406
1758447530130475000,0.51247509765625,-0.07665912806987762,-0.13350051641464233,-0.1466570943593979
1758447530140448000,0.522447998046875,-0.07388091832399368,-0.1282452940940857,-0.1432839334011078
1758447530150420200,0.532420166015625,-0.0715312510728836,-0.12331117689609528,-0.13191555440425873
1758447530160392000,0.542391845703125,-0.06220218911767006,-0.10573990643024445,-0.11607560515403748
1758447530170365200,0.552365234375,-0.045797575265169144,-0.07509880512952805,-0.10793378949165344
1758447530180337200,0.562337158203125,-0.02585289441049099,-0.0636080652475357,-0.10573801398277283
1758447530190310000,0.572309814453125,-0.010043537244200706,-0.05050937086343765,-0.10490356385707855
1758447530200282000,0.5822822265625,0.005758861545473337,-0.024530764669179916,-0.09128867834806442
1758447530210255000,0.592255126953125,0.016362620517611504,0.005107048898935318,-0.06034238263964653
1758447530220227000,0.60222705078125,0.022331563755869865,0.013474700972437859,-0.008946038782596588
1758447530230200000,0.612199951171875,0.025836093351244926,0.016195770353078842,0.045956045389175415
1758447530240172000,0.622172119140625,0.02904520183801651,0.01925733871757984,0.0884861946105957
1758447530250145300,0.632145263671875,0.031133534386754036,0.02045094221830368,0.10301949828863144
1758447530260117000,0.642116943359375,0.03834857419133186,0.02110208570957184,0.07861215621232986
1758447530270089200,0.652089111328125,0.04923861846327782,0.023398300632834435,0.02160780504345894
1758447530280062200,0.662062255859375,0.059641990810632706,0.023039571940898895,-0.04370754957199097
1758447530290034200,0.6720341796875,0.06515922397375107,0.017675768584012985,-0.0949213057756424
1758447530300007200,0.682007080078125,0.06883172690868378,0.007165070623159409,-0.12063092738389969
1758447530309979100,0.691979248046875,0.07417383790016174,-0.0001281502190977335,-0.12161020189523697
1758447530319952100,0.7019521484375,0.07830919325351715,0.0031595220789313316,-0.1069425716996193
1758447530329924000,0.711924072265625,0.06981435418128967,0.013363726437091827,-0.08330002427101135
1758447530339897000,0.72189697265625,0.0671277567744255,0.019260497763752937,-0.05591233819723129
1758447530349869000,0.731869140625,0.07160083204507828,0.01912648230791092,-0.03206871822476387
1758447530359842000,0.741842041015625,0.08413953334093094,0.03266679495573044,-0.0147405955940485
1758447530369814300,0.751814208984375,0.09581071883440018,0.05734999477863312,0.0000513358972966671
1758447530379787300,0.761787353515625,0.10208752751350403,0.08347053825855255,0.012615863233804703
1758447530389759000,0.771759033203125,0.10363151133060455,0.104489766061306,0.023847412317991257
1758447530399731200,0.781731201171875,0.10072360932826996,0.11864127218723297,0.03329391032457352
1758447530409704200,0.7917041015625,0.09768353402614594,0.11424320936203003,0.03594699874520302
1758447530419676200,0.80167626953125,0.08501221984624863,0.08933652937412262,0.02872796729207039
1758447530429649200,0.811649169921875,0.06950291246175766,0.058337558060884476,0.01565895974636078
1758447530439621000,0.82162109375,0.058596208691596985,0.046908605843782425,0.008760839700698853
1758447530449594000,0.831593994140625,0.04840154945850372,0.04360964149236679,0.009950494393706322
1758447530459566000,0.841566162109375,0.04121873527765274,0.0381150059401989,0.018283525481820107
1758447530469539000,0.8515390625,0.038325972855091095,0.03721786290407181,0.0331483818590641
1758447530479511000,0.861510986328125,0.035316068679094315,0.0366402231156826,0.03832769766449928
1758447530489484000,0.871484130859375,0.03165034204721451,0.03058796003460884,0.03273194283246994
1758447530499456300,0.881456298828125,0.036148421466350555,0.04077775031328201,0.011037830263376236
1758447530509428000,0.891427978515625,0.04849875718355179,0.054865214973688126,-0.017428642138838768
1758447530519401000,0.90140087890625,0.055648013949394226,0.06464993953704834,-0.042081788182258606
1758447530529373200,0.911373291015625,0.06994419544935226,0.0840408056974411,-0.05569515377283096
1758447530539346200,0.92134619140625,0.08576656877994537,0.10028289258480072,-0.05272732675075531
1758447530549318100,0.931318115234375,0.09762101620435715,0.11215408146381378,-0.03516639769077301
1758447530559291100,0.941291015625,0.10498598963022232,0.12246690690517426,-0.01428375206887722
1758447530569263000,0.95126318359375,0.10721753537654877,0.12716563045978546,-0.0026710457168519497
1758447530579236000,0.961236083984375,0.1049828752875328,0.11885576695203781,0.0013276906684041023
1758447530589208000,0.9712080078125,0.1010882705450058,0.08759372681379318,-0.0036817274522036314
1758447530599181000,0.98118115234375,0.09364873170852661,0.044876351952552795,-0.017844950780272484
1758447530609153000,0.991153076171875,0.0834888443350792,-0.008680237457156181,-0.04210798069834709
1758447530619126000,1.0011259765625,0.06855224072933197,-0.03823413699865341,-0.07182352989912033
1758447530629098200,1.01109814453125,0.051832377910614014,-0.0384298637509346,-0.09999848157167435
1758447530639070000,1.021070068359375,0.03819912299513817,-0.020524632185697556,-0.11411163955926895
1758447530649043200,1.031043212890625,0.03276779502630234,0.0013086505932733417,-0.09475255012512207
1758447530659015200,1.04101513671875,0.028416192159056664,0.021929506212472916,-0.04928253963589668
1758447530668988000,1.05098779296875,0.01772284507751465,0.031819067895412445,0.010546587407588959
1758447530678960000,1.060960205078125,0.0017084586434066296,0.040059953927993774,0.06181031093001366
1758447530688933000,1.07093310546875,-0.010812392458319664,0.06365048885345459,0.08403706550598145
1758447530698905000,1.080905029296875,-0.014019636437296867,0.08400209993124008,0.07431839406490326
1758447530708878000,1.090878173828125,-0.010082799941301346,0.10244898498058319,0.036177050322294235
1758447530718850000,1.10085009765625,0.00003907596692442894,0.12145383656024933,-0.019247593358159065
1758447530728823300,1.1108232421875,0.005380307324230671,0.11046165227890015,-0.0731782391667366
1758447530738795000,1.120794921875,0.011013159528374672,0.07832342386245728,-0.11125078797340393
1758447530748768000,1.13076806640625,0.014974118210375309,0.04121192544698715,-0.12977056205272675
1758447530758740200,1.140740234375,0.017577623948454857,0.01906161941587925,-0.1273428201675415
1758447530768712000,1.1507119140625,0.01556754857301712,0.012395833618938923,-0.10307718068361282
1758447530778685200,1.160685302734375,0.015494045801460743,0.02161889150738716,-0.06710373610258102
1758447530788657200,1.1706572265625,0.012853099033236504,0.044458743184804916,-0.02896668203175068
1758447530798630000,1.1806298828125,0.0007636796217411757,0.06380794197320938,-0.003978506661951542
1758447530808602000,1.19060205078125,-0.011240974068641663,0.08664066344499588,-0.003203559434041381
1758447530818575000,1.2005751953125,-0.023067006841301918,0.10024302452802658,-0.023372476920485497
1758447530828547000,1.210547119140625,-0.0310771893709898,0.0809304341673851,-0.049469105899333954
1758447530838520000,1.22052001953125,-0.03944137692451477,0.05621735751628876,-0.07017970830202103
1758447530848492000,1.230491943359375,-0.0450817234814167,0.04150107130408287,-0.07310130447149277
1758447530858465300,1.24046533203125,-0.04611476510763168,0.035453297197818756,-0.06224067136645317
1758447530868437000,1.25043701171875,-0.04031664505600929,0.02889469638466835,-0.05094362050294876
1758447530878409200,1.2604091796875,-0.034739986062049866,0.02041172981262207,-0.04200977832078934
1758447530888382200,1.27038232421875,-0.03228827565908432,0.007882877252995968,-0.0366208478808403
1758447530898354200,1.280354248046875,-0.03444330766797066,0.003104900009930134,-0.034537456929683685
1758447530908327200,1.2903271484375,-0.031981974840164185,0.012671167030930519,-0.03366835415363312
1758447530918299100,1.300299072265625,-0.03154148906469345,0.02060711942613125,-0.031185757368803024
1758447530928272100,1.310272216796875,-0.02816060371696949,0.03223048150539398,-0.021177053451538086
1758447530938244000,1.320244140625,-0.025742454454302788,0.038451094180345535,-0.012879176065325737
1758447530948217000,1.330217041015625,-0.024571575224399567,0.041170939803123474,-0.0029709627851843834
1758447530958189000,1.34018896484375,-0.02723500318825245,0.037935465574264526,-0.0012492293026298285
1758447530968161500,1.35016162109375,-0.026707282289862633,0.03236250951886177,-0.007044903002679348
1758447530978133800,1.3601337890625,-0.02699969708919525,0.028278551995754242,-0.017687160521745682
1758447530988106800,1.370106689453125,-0.028480451554059982,0.01815860904753208,-0.022529950365424156
1758447530998078500,1.380078369140625,-0.02539011836051941,0.019211357459425926,-0.021758433431386948
1758447531008050700,1.39005078125,-0.021556995809078217,0.0242457278072834,-0.024282213300466537
1758447531018023700,1.400023681640625,-0.022395890206098557,0.025302736088633537,-0.025105662643909454
1758447531027995600,1.40999560546875,-0.0335388220846653,0.023655831813812256,-0.02577490359544754
1758447531037968600,1.41996875,-0.041641756892204285,0.026715537533164024,-0.023737318813800812
1758447531047940600,1.429940673828125,-0.04469248279929161,0.021624527871608734,-0.019223760813474655
1758447531057913600,1.43991357421875,-0.04005672037601471,0.004552599508315325,-0.012168247252702713
1758447531067885600,1.449885498046875,-0.037269458174705505,-0.012502811849117279,-0.012267861515283585
1758447531077858600,1.459858642578125,-0.03231224790215492,-0.01919666677713394,-0.01951618678867817
1758447531087830500,1.46983056640625,-0.02737836167216301,-0.013376557268202305,-0.026825420558452606
1758447531097803500,1.479803466796875,-0.021640049293637276,0.0067465538159012794,-0.02846592850983143
1758447531107775700,1.489775634765625,-0.01512777991592884,0.026105785742402077,-0.0193583145737648
1758447531117748700,1.499748779296875,-0.007251480594277382,0.03962266072630882,-0.0006610599812120199
1758447531127720700,1.509720703125,-0.0014795728493481874,0.04077066853642464,0.021000683307647705
1758447531137692700,1.519692626953125,-0.0006678414065390825,0.02600184455513954,0.0393032543361187
1758447531147665700,1.529665771484375,0.0012494754046201706,0.002833198057487607,0.046454671770334244
1758447531157637600,1.5396376953125,0.0035871982108801603,-0.023825043812394142,0.04009557515382767
1758447531167610600,1.549610595703125,0.0003720056265592575,-0.04274236038327217,0.026153797283768654
1758447531177582800,1.559582763671875,-0.004074674099683762,-0.05768536031246185,0.011718131601810455
1758447531187555600,1.5695556640625,-0.005880563519895077,-0.04628489911556244,0.00028384989127516747
1758447531197527600,1.579527587890625,-0.0065665943548083305,-0.012407357804477215,0.004469540435820818
1758447531207500800,1.589500732421875,-0.0016425990033894777,0.044458165764808655,0.016163980588316917
1758447531217472500,1.599472412109375,0.008863305673003197,0.0978124663233757,0.03753824532032013
1758447531227445500,1.609445556640625,0.01967315375804901,0.12268064171075821,0.05646611005067825
1758447531237417700,1.619417724609375,0.030454695224761963,0.1227879673242569,0.06036338210105896
1758447531247390700,1.629390625,0.028494952246546745,0.09598948806524277,0.04223227873444557
1758447531257362700,1.63936279296875,0.02617347426712513,0.05489638075232506,0.01306320820003748
1758447531267334700,1.649334716796875,0.01577397994697094,0.01316488441079855,-0.01893264427781105
1758447531277307600,1.6593076171875,0.012360073626041412,-0.03157888725399971,-0.0323946550488472
1758447531287279600,1.669279541015625,0.011842360720038414,-0.0543539896607399,-0.029529578983783722
1758447531297252600,1.679252685546875,0.008847636170685291,-0.04833205044269562,-0.004518767818808556
1758447531307224800,1.689224853515625,0.009691474959254265,-0.025864319875836372,0.028923241421580315
1758447531317197600,1.699197509765625,0.013051318936049938,0.008536795154213905,0.060946688055992126
1758447531327169500,1.70916943359375,0.0114551717415452,0.03415822982788086,0.07063999027013779
1758447531337142800,1.719142822265625,0.008144063875079155,0.0403631292283535,0.06261055916547775
1758447531347114500,1.729114501953125,0.004641926847398281,0.02182716131210327,0.03684980422258377
1758447531357087500,1.73908740234375,0.0037103530485183,-0.008823159150779247,0.0021568057127296925
1758447531367059700,1.749059814453125,0.013550009578466415,-0.02055959403514862,-0.031832367181777954
1758447531377032700,1.75903271484375,0.026913750916719437,-0.007452845573425293,-0.059226974844932556
1758447531387004700,1.769004638671875,0.03792931139469147,0.013170289807021618,-0.0749472975730896
1758447531396977700,1.778977783203125,0.05152980983257294,0.028353236615657806,-0.07817025482654572
1758447531406949600,1.78894970703125,0.06579556316137314,0.017774362117052078,-0.06896131485700607
1758447531416921600,1.798921630859375,0.072989821434021,-0.0027522172313183546,-0.052656907588243484
1758447531426894600,1.80889453125,0.07691852748394012,-0.028329763561487198,-0.03792213276028633
1758447531436866800,1.81886669921875,0.08292502164840698,-0.06067971512675285,-0.028198134154081345
1758447531446839600,1.828839599609375,0.08300437033176422,-0.08524522930383682,-0.015273584052920341
1758447531456811800,1.838811767578125,0.08122085779905319,-0.0942283347249031,-0.007162127643823624
1758447531466784800,1.84878466796875,0.0750526413321495,-0.07566836476325989,0.0019898959435522556
1758447531476756500,1.858756591796875,0.06845439225435257,-0.04668411612510681,0.009243547916412354
1758447531486729700,1.868729736328125,0.06679999828338623,-0.02511189877986908,0.011185402050614357
1758447531496701700,1.87870166015625,0.06420554220676422,-0.017992470413446426,0.014215279370546341
1758447531506674400,1.88867431640625,0.05976438149809837,-0.022175610065460205,0.01863189786672592
1758447531516646700,1.898646728515625,0.05385749042034149,-0.030413299798965454,0.018486224114894867
1758447531526619600,1.90861962890625,0.05007397383451462,-0.0391959510743618,0.010752527043223381
1758447531536591600,1.918591552734375,0.049156248569488525,-0.03732028603553772,0.004030442796647549
1758447531546563600,1.9285634765625,0.044106777757406235,-0.041699085384607315,-0.005761304870247841
1758447531556536600,1.93853662109375,0.04186759516596794,-0.04706801846623421,-0.010774172842502594
1758447531566508500,1.948508544921875,0.04099719226360321,-0.04290933534502983,-0.010809028521180153
1758447531576481500,1.9584814453125,0.04354877024888992,-0.024569744244217873,-0.011353644542396069
1758447531586453800,1.968453857421875,0.04524775594472885,-0.006618487648665905,-0.012732948176562786
1758447531596426800,1.9784267578125,0.05077061802148819,0.010514958761632442,-0.01044369488954544
1758447531606398500,1.9883984375,0.05299697816371918,0.02707058936357498,-0.0012106639333069324
1758447531616371700,1.998371826171875,0.05088828504085541,0.02007792703807354,0.008738372474908829
1758447531626343700,2.00834375,0.047636229544878006,-0.0010328057687729597,0.014220016077160835
1758447531636316400,2.01831640625,0.04420927166938782,-0.024763701483607292,0.007683820091187954
1758447531646288600,2.02828857421875,0.0385676734149456,-0.023346712812781334,-0.007422572001814842
1758447531656261600,2.03826171875,0.03549465164542198,-0.015433662571012974,-0.026047656312584877
1758447531666233600,2.048233642578125,0.02653185836970806,-0.003910589963197708,-0.04254915192723274
1758447531676205600,2.05820556640625,0.012106580659747124,0.006037648301571608,-0.05091840401291847
1758447531686178600,2.068178466796875,0.00010671908967196941,0.011779273860156536,-0.04576762765645981
1758447531696150500,2.078150634765625,-0.004463532008230686,0.018909620121121407,-0.02820461429655552
1758447531706123500,2.08812353515625,-0.003856288967654109,0.024697910994291306,-0.009110135026276112
1758447531716095700,2.098095703125,-0.0011132333893328905,0.039078716188669205,0.010358104482293129
1758447531726068700,2.10806884765625,-0.0013619016390293837,0.05975962430238724,0.020469779148697853
1758447531736040700,2.118040771484375,0.0019494728185236454,0.07836739718914032,0.024863995611667633
1758447531746013700,2.128013671875,0.01035030372440815,0.08941280841827393,0.025895118713378906
1758447531755985700,2.137985595703125,0.01449524611234665,0.08983412384986877,0.025938794016838074
1758447531765958700,2.147958740234375,0.017797261476516724,0.08610471338033676,0.02182462066411972
1758447531775930600,2.1579306640625,0.021344058215618134,0.07903801649808884,0.013557367958128452
1758447531785903600,2.167903564453125,0.024028712883591652,0.06678976118564606,0.0036592185497283936
1758447531795875600,2.17787548828125,0.024170659482479095,0.05166061222553253,-0.005934286862611771
1758447531805848600,2.1878486328125,0.0221535824239254,0.029039716348052025,-0.004918545018881559
1758447531815820800,2.19782080078125,0.021947987377643585,0.018388936296105385,0.001569713931530714
1758447531825792500,2.20779248046875,0.020658215507864952,0.02017192728817463,0.014519588090479374
1758447531835765500,2.217765625,0.020212136209011078,0.019770855084061623,0.028213564306497574
1758447531845737700,2.22773779296875,0.016327083110809326,0.01600600965321064,0.03621334582567215
1758447531855710700,2.237710693359375,0.008257972076535225,0.01035051979124546,0.041659243404865265
1758447531865682700,2.2476826171875,0.0010231093037873507,0.009231704287230968,0.0392036959528923
1758447531875655700,2.25765576171875,-0.0026935983914881945,0.021381577476859093,0.02901124581694603
1758447531885627600,2.267627685546875,-0.008262001909315586,0.03628649190068245,0.010857274755835533
1758447531895600600,2.2776005859375,-0.015325769782066345,0.037898771464824677,-0.0060095894150435925
1758447531905572600,2.287572509765625,-0.017757270485162735,0.020495614036917686,-0.01461862213909626
1758447531915545600,2.297545654296875,-0.01766219548881054,0.008718849159777164,-0.010998853482306004
1758447531925517600,2.307517578125,-0.01404733769595623,0.002816713647916913,0.0009336280636489391
1758447531935490600,2.317490478515625,-0.012715490534901619,0.0030028687324374914,0.01775388792157173
1758447531945462800,2.327462890625,-0.00946639571338892,0.0032653817906975746,0.026107802987098694
1758447531955435800,2.337435791015625,-0.006998976692557335,0.00850062444806099,0.02228377014398575
1758447531965407500,2.347407470703125,-0.009107212536036968,0.008504506200551987,0.015617642551660538
1758447531975379700,2.357379638671875,-0.016115320846438408,0.0010055777383968234,0.013811754062771797
1758447531985352400,2.3673525390625,-0.019509363919496536,-0.0012525641359388828,0.008742373436689377
1758447531995324700,2.37732470703125,-0.021415390074253082,-0.00007278379052877426,0.002010701224207878
1758447532005297700,2.387297607421875,-0.02269941382110119,0.002287277253344655,-0.007151728495955467
1758447532015269600,2.39726953125,-0.02150765061378479,0.00444523710757494,-0.012120122089982033
1758447532025242600,2.40724267578125,-0.016354508697986603,-0.002357924822717905,-0.015285509638488293
1758447532035214600,2.417214599609375,-0.013434085994958878,-0.005377150606364012,-0.012982673943042755
1758447532045187600,2.4271875,-0.008863150142133236,0.004493551794439554,-0.012140395119786263
1758447532055159600,2.43715966796875,-0.002484347438439727,0.023444605991244316,-0.007839921861886978
1758447532065132500,2.447132568359375,-0.0011230555828660727,0.037849344313144684,0.0007795747369527817
1758447532075104800,2.457104736328125,0.00006870925426483154,0.03344793990254402,0.01586212031543255
1758447532085077500,2.467077392578125,-0.0013865188229829073,0.014872812665998936,0.030168652534484863
1758447532095049700,2.4770498046875,-0.0020861311350017786,-0.002994602546095848,0.04478061944246292
1758447532105021700,2.487021728515625,-0.008218136616051197,-0.021191827952861786,0.04613513499498367
1758447532114994400,2.496994384765625,-0.007728647440671921,-0.032065246254205704,0.03202597424387932
1758447532124966700,2.506966552734375,-0.009619107469916344,-0.02432900480926037,0.011958627961575985
1758447532134939600,2.516939697265625,-0.007661417126655579,-0.0021933414973318577,-0.007938114926218987
1758447532144911600,2.52691162109375,0.00002259877510368824,0.016674093902111053,-0.022865677252411842
1758447532154884600,2.536884521484375,0.0013413962442427874,0.01949305087327957,-0.029865263029932976
1758447532164856600,2.546856689453125,0.003597587114199996,0.01943347416818142,-0.02888401225209236
1758447532174829800,2.556829833984375,0.0030580307357013226,0.014090641401708126,-0.01576448231935501
1758447532184801500,2.566801513671875,-0.0005748590920120478,0.009418264031410217,-0.001423289068043232
1758447532194774500,2.5767744140625,-0.0003777851816266775,0.009579651989042759,0.013865385204553604
1758447532204746800,2.586746826171875,0.0010341464076191187,0.007753410376608372,0.022755583748221397
1758447532214719500,2.596719482421875,0.004474950488656759,0.012394501827657223,0.024204343557357788
1758447532224691700,2.606691650390625,0.0040688165463507175,0.011703415773808956,0.021144891157746315
1758447532234664700,2.616664794921875,0.004081599414348602,0.004890250973403454,0.01913446933031082
1758447532244636400,2.626636474609375,0.0019830663222819567,0.002352716401219368,0.022565532475709915
1758447532254608600,2.636608642578125,0.0013076886534690857,0.019076302647590637,0.026574652642011642
1758447532264581600,2.64658154296875,-0.00047388928942382336,0.030902447178959846,0.033662889152765274
1758447532274553600,2.6565537109375,-0.008082540705800056,0.03362632542848587,0.034511636942625046
1758447532284526600,2.666526611328125,-0.013920457102358341,0.02083810232579708,0.03161810338497162
1758447532294498600,2.67649853515625,-0.019809238612651825,0.0013003525091335177,0.031289733946323395
1758447532304471600,2.686471435546875,-0.016909247264266014,-0.025320492684841156,0.023266397416591644
1758447532314443500,2.696443603515625,-0.01851300150156021,-0.04629475250840187,0.011655015870928764
1758447532324416500,2.70641650390625,-0.01842375472187996,-0.05187093839049339,0.0012386646121740341
1758447532334388500,2.716388427734375,-0.012065459042787552,-0.04306626319885254,-0.0041529047302901745
1758447532344361500,2.726361572265625,-0.0069846343249082565,-0.020590873435139656,-0.007760793901979923
1758447532354333700,2.736333740234375,-0.0009184854570776224,0.007578711956739426,-0.0068167028948664665
1758447532364306700,2.746306640625,0.0026624719612300396,0.018783025443553925,-0.008201351389288902
1758447532374278700,2.756278564453125,0.008403981104493141,0.021007031202316284,-0.007483362685889006
1758447532384251600,2.766251708984375,0.008738968521356583,0.016248568892478943,-0.0010394228156656027
1758447532394223600,2.7762236328125,0.01095099002122879,0.0042124115861952305,0.01609908416867256
1758447532404195600,2.786195556640625,0.0118272565305233,0.0031610827427357435,0.036475490778684616
1758447532414168600,2.79616845703125,0.009943069890141487,0.005238614045083523,0.05658528581261635
1758447532424140800,2.806140869140625,0.0023031828459352255,0.008846286684274673,0.06595885008573532
1758447532434113500,2.816113525390625,-0.004304653033614159,0.011699330992996693,0.06239314377307892
1758447532444085500,2.82608544921875,-0.013078249990940094,0.014335226267576218,0.04539632052183151
1758447532454058800,2.836058837890625,-0.009166066534817219,0.003180310595780611,0.017364956438541412
1758447532464030500,2.846030517578125,-0.004429863765835762,0.00023371377028524876,-0.01481311023235321
1758447532474003500,2.85600341796875,-0.0035797820892184973,-0.0035887211561203003,-0.03984575718641281
1758447532483975700,2.8659755859375,-0.005462671630084515,-0.014388307929039001,-0.05312702804803848
1758447532493948700,2.87594873046875,-0.008403866551816463,-0.016573697328567505,-0.04777780547738075
1758447532503920600,2.885920654296875,-0.005556914489716291,-0.02572544291615486,-0.032799579203128815
1758447532513893600,2.8958935546875,-0.003852491732686758,-0.03864683583378792,-0.008767747320234776
1758447532523865600,2.905865478515625,-0.0003134526778012514,-0.04321675002574921,0.016360677778720856
1758447532533837600,2.915837646484375,0.0012090764939785004,-0.04744771495461464,0.04123193770647049
1758447532543810600,2.925810546875,0.004291151184588671,-0.04023533686995506,0.05271707475185394
1758447532553782800,2.93578271484375,0.00592473428696394,-0.02650381065905094,0.04669300466775894
1758447532563755500,2.945755615234375,0.010142798535525799,-0.009264934808015823,0.023862700909376144
1758447532573727500,2.9557275390625,0.016044629737734795,0.003809587564319372,-0.0013398593291640282
1758447532583700700,2.96570068359375,0.02277923747897148,0.014915487729012966,-0.019308701157569885
1758447532593672400,2.97567236328125,0.027483712881803513,0.02471511997282505,-0.028685424476861954
1758447532603645400,2.9856455078125,0.02752993442118168,0.026700474321842194,-0.025721684098243713
1758447532613617700,2.99561767578125,0.022990042343735695,0.035684917122125626,-0.010750457644462585
1758447532623590700,3.005590576171875,0.01514467503875494,0.04576730355620384,0.004702910780906677
1758447532633562600,3.015562744140625,0.009346174076199532,0.05461112782359123,0.021611854434013367
1758447532643535600,3.02553564453125,0.003519897349178791,0.05541636049747467,0.03689868375658989
1758447532653507600,3.035507568359375,0.011000450700521469,0.05196863412857056,0.041941381990909576
1758447532663480600,3.04548046875,0.013898128643631935,0.048858802765607834,0.03240004554390907
1758447532673452500,3.05545263671875,0.012098364531993866,0.05131503567099571,0.014217045158147812
1758447532683424800,3.0654248046875,0.006618830841034651,0.042226895689964294,-0.0028665917925536633
1758447532693397500,3.0753974609375,0.0020088988821953535,0.027057530358433723,-0.016358166933059692
1758447532703369700,3.08536962890625,-0.0001339181326329708,0.007671124301850796,-0.027880709618330002
1758447532713342700,3.0953427734375,0.0007462566718459129,0.006487615406513214,-0.03921991586685181
1758447532723314400,3.105314453125,0.0012151624541729689,0.01965523697435856,-0.0553266815841198
1758447532733287700,3.11528759765625,-0.0027287129778414965,0.02707134187221527,-0.06578545272350311
1758447532743259600,3.125259765625,-0.0024301346857100725,0.016685472801327705,-0.060577526688575745
1758447532753232600,3.135232666015625,0.0027728830464184284,-0.01148091908544302,-0.03737766295671463
1758447532763204600,3.14520458984375,0.007009401917457581,-0.03774707019329071,-0.0018575978465378284
1758447532773177600,3.155177490234375,0.009010501205921173,-0.05634232610464096,0.023679453879594803
1758447532783149800,3.16514990234375,0.010370653122663498,-0.06868808716535568,0.034652162343263626
1758447532793122600,3.17512255859375,0.004731409251689911,-0.061901822686195374,0.023868225514888763
1758447532803094500,3.185094482421875,0.006367839872837067,-0.04353943094611168,-0.0045314510352909565
1758447532813066800,3.195066650390625,0.004219201393425465,-0.0358910970389843,-0.03845852613449097
1758447532823039500,3.20503955078125,0.003916674759238958,-0.024166816845536232,-0.06517130881547928
1758447532833011700,3.21501171875,0.005366500001400709,-0.009517567232251167,-0.07415202260017395
1758447532842984700,3.224984619140625,0.006222212687134743,0.008923678658902645,-0.06753714382648468
1758447532852956400,3.234956298828125,0.001961687346920371,0.013701123185455799,-0.04338732734322548
1758447532862929700,3.2449296875,-0.0017549446783959866,0.0092079546302557,-0.011743960902094841
1758447532872901600,3.254901611328125,-0.006564880255609751,0.0060529084876179695,0.008908587507903576
1758447532882874400,3.264874267578125,-0.0080164959654212,0.007522562053054571,0.01609293930232525
1758447532892846600,3.2748466796875,-0.001213184790685773,0.00733694015070796,0.007264027837663889
1758447532902819600,3.284819580078125,0.008906596340239048,-0.0043378956615924835,-0.0032138158567249775
1758447532912791600,3.29479150390625,0.012190540321171284,-0.011919648386538029,-0.01686757616698742
1758447532922764500,3.3047646484375,0.016737166792154312,-0.017658382654190063,-0.02597535401582718
1758447532932736500,3.314736572265625,0.019208844751119614,-0.010665987618267536,-0.024942845106124878
1758447532942709800,3.324709716796875,0.01356797106564045,-0.003625323297455907,-0.01632973551750183
1758447532952681500,3.334681396484375,0.006078628823161125,-0.0028122602961957455,-0.0029236485715955496
1758447532962654200,3.344654296875,-0.003832027083262801,0.00402055261656642,0.015818152576684952
1758447532972627200,3.354627197265625,-0.011499001644551754,0.006755086127668619,0.022713609039783478
1758447532982599200,3.36459912109375,-0.01515871286392212,0.005902864504605532,0.01712685637176037
1758447532992572400,3.374572509765625,-0.016506273299455643,0.0024881591089069843,0.009109143167734146
1758447533002544000,3.384544189453125,-0.011618456803262234,-0.0038099177181720734,-0.005708860699087381
1758447533012517000,3.39451708984375,-0.006771503947675228,-0.0009297092328779399,-0.016235537827014923
1758447533022489300,3.4044892578125,-0.002757133450359106,0.014919455163180828,-0.026740357279777527
1758447533032462000,3.414462158203125,0.00041549024172127247,0.047125592827796936,-0.03270210698246956
1758447533042434300,3.424434326171875,0.0025718535762280226,0.07157739996910095,-0.028448496013879776
1758447533052407300,3.4344072265625,0.001519105862826109,0.07261177152395248,-0.01427488587796688
1758447533062379000,3.44437890625,0.0018551182001829147,0.05271599069237709,0.008593166247010231
1758447533072352300,3.454352294921875,-0.002412863541394472,0.026942448690533638,0.03371502831578255
1758447533082324200,3.46432421875,-0.008175672963261604,0.0031705256551504135,0.04467237740755081
1758447533092296200,3.474296142578125,-0.012561366893351078,-0.005948936566710472,0.042168207466602325
1758447533102269200,3.484269287109375,-0.015216542407870293,-0.005353705026209354,0.025589460507035255
1758447533112241200,3.4942412109375,-0.019368944689631462,-0.010747404769062996,-0.00001710047945380211
1758447533122214400,3.50421435546875,-0.01896604336798191,-0.01842682622373104,-0.023208271712064743
1758447533132186000,3.51418603515625,-0.019346075132489204,-0.01853282004594803,-0.041513506323099136
1758447533142159000,3.5241591796875,-0.014698745682835579,-0.016958056017756462,-0.04718596488237381
1758447533152131300,3.53413134765625,-0.012197505682706833,-0.009274836629629135,-0.03513649106025696
1758447533162104000,3.54410400390625,-0.01351344957947731,-0.004334251396358013,-0.008967172354459763
1758447533172076300,3.554076171875,-0.021370839327573776,-0.0017355389427393675,0.02035396546125412
1758447533182049300,3.56404931640625,-0.025675343349575996,-0.0019208256853744388,0.04206608608365059
1758447533192021200,3.574021240234375,-0.026735812425613403,0.00027894543018192053,0.04514017328619957
1758447533201994200,3.583994140625,-0.02106861211359501,0.002842785557731986,0.03275510296225548
1758447533211966200,3.59396630859375,-0.019372444599866867,0.004729102365672588,0.015834178775548935
1758447533221939200,3.603939208984375,-0.01883680745959282,0.00001755007542669773,0.00008500972762703896
1758447533231911200,3.6139111328125,-0.019517244771122932,-0.00410022959113121,-0.008298088796436787
1758447533241883400,3.62388330078125,-0.020066844299435616,0.006227354519069195,-0.015149369835853577
1758447533251856400,3.6338564453125,-0.019401587545871735,0.017137259244918823,-0.019935868680477142
1758447533261828000,3.643828125,-0.015597525052726269,0.035490430891513824,-0.025678429752588272
1758447533271801300,3.65380126953125,-0.007081534713506699,0.05365452170372009,-0.028514962643384933
1758447533281773300,3.663773193359375,0.00022324314340949059,0.07007931172847748,-0.019291942939162254
1758447533291746000,3.67374609375,0.004433434456586838,0.09019416570663452,0.00251641683280468
1758447533301718300,3.68371826171875,0.017444157972931862,0.10088865458965302,0.03245842829346657
1758447533311691300,3.693691162109375,0.02783581241965294,0.10073499381542206,0.05708947405219078
1758447533321663200,3.703663330078125,0.03473754972219467,0.11099903285503387,0.06392069160938263
1758447533331636200,3.71363623046875,0.039813268929719925,0.121824249625206,0.06803660839796066
1758447533341608200,3.723608154296875,0.04002011939883232,0.13967318832874298,0.07704184204339981
1758447533351581400,3.73358154296875,0.03024924546480179,0.15014952421188354,0.09352574497461319
1758447533361553200,3.74355322265625,0.017781736329197884,0.15094751119613647,0.10680583864450455
1758447533371525400,3.753525390625,0.013557963073253632,0.13797977566719055,0.10725325345993042
1758447533381498400,3.763498291015625,0.011362717486917973,0.1177525520324707,0.09895376861095428
1758447533391470000,3.773469970703125,0.009958699345588684,0.09092919528484344,0.07541488111019135
1758447533401443300,3.783443359375,-0.0008421670645475388,0.06088317185640335,0.043753452599048615
1758447533411415300,3.793415283203125,-0.009953906759619713,0.01593540795147419,0.0055932835675776005
1758447533421388000,3.803387939453125,-0.011360970325767994,-0.025858942419290543,-0.03125110641121864
1758447533431360300,3.8133603515625,-0.013072052039206028,-0.04771018028259277,-0.06007423624396324
1758447533441333200,3.823333251953125,-0.015869243070483208,-0.05232476070523262,-0.07562224566936493
1758447533451305200,3.83330517578125,-0.014307299628853798,-0.04291554540395737,-0.07358253002166748
1758447533461278200,3.8432783203125,-0.010954570025205612,-0.030037712305784225,-0.05183786153793335
1758447533471250200,3.853250244140625,-0.00974203273653984,-0.014101357199251652,-0.024687200784683228
1758447533481223400,3.863223388671875,-0.004997048061341047,-0.00043620564974844456,0.0022709835320711136
1758447533491195100,3.873195068359375,0.00020810053683817387,0.007844094187021255,0.022241761907935143
1758447533501168000,3.883168212890625,0.003050003433600068,0.014342385344207287,0.019189396873116493
1758447533511140400,3.893140380859375,0.00616749981418252,0.014606303535401821,-0.002392594236880541
1758447533521112300,3.9031123046875,0.007308012805879116,0.014758077450096607,-0.029813405126333237
1758447533531085300,3.913085205078125,0.011941913515329361,0.019819414243102074,-0.05655047670006752
1758447533541057300,3.923057373046875,0.016071338206529617,0.026275061070919037,-0.07040231674909592
1758447533551030300,3.9330302734375,0.016525674611330032,0.023189788684248924,-0.06735192984342575
1758447533562248200,3.944248291015625,0.018401870504021645,0.01618194580078125,-0.04116480425000191
1758447533572221200,3.95422119140625,0.015458165667951107,-0.0007446142844855785,-0.012599004432559013
1758447533582193200,3.964193115234375,0.011636263690888882,-0.01267983764410019,0.010746266692876816
1758447533592166100,3.974166259765625,0.007497597485780716,-0.021651264280080795,0.02369474433362484
1758447533602138400,3.984138427734375,0.004283161833882332,-0.023558620363473892,0.023589016869664192
1758447533612111400,3.994111328125,0.004175803158432245,-0.016132868826389313,0.014552038162946701
1758447533622083000,4.0040830078125,0.0015706992708146572,-0.004681276623159647,0.001028772909194231
1758447533632056300,4.014056396484375,0.00009557418525218964,0.005435539409518242,-0.012612471356987953
1758447533642028300,4.0240283203125,0.001488477922976017,0.013378016650676727,-0.018318109214305878
1758447533652001000,4.0340009765625,0.001606112695299089,0.020619038492441177,-0.017754817381501198
1758447533661973200,4.04397314453125,0.004254626110196114,0.027104901149868965,-0.01602908968925476
1758447533671945200,4.0539453125,0.0060796551406383514,0.01629546843469143,-0.006135810632258654
1758447533681918200,4.063918212890625,0.0030327322892844677,0.0059943608939647675,0.00580127676948905
1758447533691890200,4.07389013671875,-0.000295036006718874,0.00805594027042389,0.012270730920135975
1758447533701863200,4.08386328125,0.0028381729498505592,0.007838094606995583,0.013757838867604733
1758447533711835100,4.093835205078125,0.010554105043411255,0.010245686396956444,0.00897836871445179
1758447533721808100,4.10380810546875,0.010347177274525166,0.022168925032019615,0.0057623363099992275
1758447533731780400,4.1137802734375,0.013196231797337532,0.03995456546545029,-0.0057059964165091515
1758447533741753300,4.12375341796875,0.021411551162600517,0.05749041587114334,-0.019821016117930412
1758447533751725300,4.133725341796875,0.027830906212329865,0.06559320539236069,-0.03761127218604088
1758447533761698300,4.1436982421875,0.03134308382868767,0.052161023020744324,-0.061826061457395554
1758447533771670300,4.153670166015625,0.031925857067108154,0.006452241912484169,-0.08334232121706009
1758447533781643300,4.163643310546875,0.024830399081110954,-0.03337319940328598,-0.09390947967767715
1758447533791615200,4.173615234375,0.01641964726150036,-0.05749540776014328,-0.08430702239274979
1758447533801587500,4.18358740234375,0.008500471711158752,-0.06058680638670921,-0.053901709616184235
1758447533811560200,4.193560302734375,-0.0009439371060580015,-0.05129415541887283,-0.01515551470220089
1758447533821532200,4.2035322265625,-0.007567219436168671,-0.035470716655254364,0.02408749610185623
1758447533831505400,4.21350537109375,-0.0046049077063798904,-0.021603791043162346,0.05101574957370758
1758447533841477000,4.22347705078125,-0.0020024667028337717,-0.018128100782632828,0.06465806066989899
1758447533851450000,4.2334501953125,0.0037421195302158594,-0.021687176078557968,0.06143605709075928
1758447533861422300,4.24342236328125,0.011208292096853256,-0.03282797709107399,0.049640387296676636
1758447533871395000,4.25339501953125,0.012647428549826145,-0.039122819900512695,0.03384854644536972
1758447533881367300,4.2633671875,0.009995984844863415,-0.0158047154545784,0.014242886565625668
1758447533891340300,4.27334033203125,0.009807697497308254,0.00884470995515585,0.0021252240985631943
1758447533901312000,4.28331201171875,0.008744563907384872,0.027808545157313347,0.0026610521599650383
1758447533911285200,4.29328515625,0.008409656584262848,0.02230887860059738,0.01559719443321228
1758447533921257200,4.30325732421875,0.008055455982685089,0.01309514231979847,0.032464057207107544
1758447533931230200,4.313230224609375,0.003711719997227192,-0.004181605763733387,0.04814676567912102
1758447533941202200,4.3232021484375,-0.0036180983297526836,-0.02895326353609562,0.054695211350917816
1758447533951175200,4.333175048828125,-0.011394865810871124,-0.04161965101957321,0.048071205615997314
1758447533961147600,4.343147705078125,-0.017296431586146355,-0.0489414818584919,0.029160896316170692
1758447533971119600,4.35311962890625,-0.017946703359484673,-0.045055538415908813,-0.0005802938248962164
1758447533981092600,4.363092529296875,-0.01534586027264595,-0.026948969811201096,-0.023903992027044296
1758447533991064600,4.373064697265625,-0.014872309751808643,-0.0024847236927598715,-0.03634534403681755
1758447534001037600,4.38303759765625,-0.015642493963241577,0.010163959115743637,-0.02821285091340542
1758447534011009800,4.393009765625,-0.015038755722343922,0.01746634766459465,-0.01293429546058178
1758447534020982500,4.402982421875,-0.015649687498807907,0.017057552933692932,0.0075816321186721325
1758447534030954500,4.41295458984375,-0.011746477335691452,0.018648359924554825,0.022287335246801376
1758447534040927700,4.422927734375,-0.0032504606060683727,0.02698432095348835,0.02399095892906189
1758447534050899500,4.4328994140625,0.0033910733181983232,0.014448808506131172,0.017161939293146133
1758447534060872400,4.44287255859375,0.004261394497007132,-0.014830783009529114,0.008545015007257462
1758447534070844700,4.4528447265625,0.005771941505372524,-0.04022163152694702,0.0013600853271782398
1758447534080817700,4.462817626953125,0.002298113889992237,-0.05061701685190201,-0.0025726044550538063
1758447534090789600,4.47278955078125,-0.008444498293101788,-0.04726099967956543,-0.004277653060853481
1758447534100762600,4.4827626953125,-0.010312706232070923,-0.05307387933135033,-0.002875498728826642
1758447534110734600,4.492734619140625,-0.008445490151643753,-0.06729104369878769,0.00026963697746396065
1758447534120706600,4.50270654296875,-0.009049229323863983,-0.07671890407800674,0.007527017034590244
1758447534130679600,4.512679443359375,-0.00572141632437706,-0.07327236235141754,0.01008424162864685
1758447534140651800,4.52265185546875,-0.001451570075005293,-0.049215227365493774,0.012906927615404129
1758447534150624500,4.53262451171875,0.001659190165810287,-0.006164002697914839,0.011584421619772911
1758447534160596700,4.5425966796875,0.0024131310638040304,0.030137544497847557,0.013852369040250778
1758447534170569700,4.55256982421875,0.0057183015160262585,0.049058131873607635,0.019470062106847763
1758447534180541400,4.56254150390625,0.008824612945318222,0.037202272564172745,0.027186304330825806
1758447534190514700,4.5725146484375,0.011796962469816208,0.009530440904200077,0.03010403737425804
1758447534200486700,4.582486572265625,0.00946882739663124,-0.023199807852506638,0.02456279844045639
1758447534210459600,4.592459716796875,0.006425259634852409,-0.056120533496141434,0.017362115904688835
1758447534220431600,4.602431640625,-0.0013210771139711142,-0.07624657452106476,0.011201160028576851
1758447534230404600,4.612404541015625,-0.006068279035389423,-0.07217568904161453,0.007023888640105724
1758447534240376800,4.622376953125,-0.008650747127830982,-0.05259719863533974,0.005420398898422718
1758447534250348500,4.6323486328125,-0.006190591491758823,-0.022302530705928802,0.004246802069246769
1758447534260321500,4.642321533203125,-0.002203306881710887,0.005084353033453226,0.007431410253047943
1758447534270293800,4.652293701171875,0.00043687247671186924,0.02402145229279995,0.0106557197868824
1758447534280266500,4.6622666015625,0.0011974712833762169,0.025626273825764656,0.020558949559926987
1758447534290238700,4.67223876953125,0.003528121393173933,0.014773652888834476,0.023881345987319946
1758447534300211700,4.682211669921875,-0.0031337758991867304,0.005088267847895622,0.02462676540017128
1758447534310183400,4.692183349609375,-0.007925757206976414,-0.007474081590771675,0.020461369305849075
1758447534320156700,4.70215673828125,-0.013776722364127636,-0.013828117400407791,0.012988538481295109
1758447534330128600,4.712128662109375,-0.017869656905531883,-0.007100061513483524,0.0030828770250082016
1758447534340101600,4.7221015625,-0.0230841264128685,0.0043640476651489735,-0.010969026014208794
1758447534350073600,4.732073486328125,-0.020590726286172867,0.01863403245806694,-0.03263126686215401
1758447534360046600,4.742046630859375,-0.018414124846458435,0.030209992080926895,-0.053320035338401794
1758447534370018800,4.752018798828125,-0.01596793159842491,0.04127633571624756,-0.06401717662811279
1758447534379990500,4.761990478515625,-0.011612864211201668,0.05921671912074089,-0.06710617244243622
1758447534389963500,4.771963623046875,-0.007326737977564335,0.07238464802503586,-0.060592252761125565
1758447534399935700,4.781935791015625,-0.003015878377482295,0.08327271789312363,-0.042302194982767105
1758447534409908500,4.791908447265625,-0.002591747557744384,0.07942572981119156,-0.01713564060628414
1758447534419880700,4.801880615234375,0.0003292076289653778,0.0624275766313076,0.010205170139670372
1758447534429853700,4.811853759765625,0.0014891268219798803,0.028788696974515915,0.03244928643107414
1758447534439825400,4.821825439453125,-0.007144308649003506,0.01025629136711359,0.0387394055724144
1758447534449798700,4.831798583984375,-0.017747456207871437,0.0006372948409989476,0.02536250650882721
1758447534459770600,4.8417705078125,-0.02246471308171749,0.0005893578054383397,-0.0012310214806348085
1758447534469743600,4.85174365234375,-0.028002945706248283,-0.003727253060787916,-0.029757756739854813
1758447534479715600,4.861715576171875,-0.02870628423988819,-0.007270855363458395,-0.053477734327316284
1758447534489688600,4.8716884765625,-0.031930577009916306,-0.015535703860223293,-0.059890106320381165
1758447534499660500,4.88166064453125,-0.034272294491529465,-0.019561605527997017,-0.04404482990503311
1758447534509633500,4.891633544921875,-0.03421926498413086,-0.017782146111130714,-0.016582228243350983
1758447534519605800,4.901605712890625,-0.033825114369392395,-0.004502026364207268,0.010784681886434555
1758447534529577500,4.911577392578125,-0.03138813376426697,0.021525200456380844,0.03310999274253845
1758447534539550500,4.921550537109375,-0.03755788132548332,0.044044625014066696,0.04936806112527847
1758447534549522700,4.931522705078125,-0.03928976505994797,0.08519212156534195,0.05486047640442848
1758447534559495700,4.94149560546875,-0.0457007922232151,0.09687861055135727,0.05640750750899315
1758447534569467600,4.951467529296875,-0.05687713250517845,0.09404949843883514,0.05643937364220619
1758447534579440600,4.961440673828125,-0.07866605371236801,0.042969804257154465,0.05821064114570618
1758447534589412600,4.97141259765625,-0.08859769999980927,0.011287903413176537,0.059228699654340744
1758447534599385600,4.981385498046875,-0.10062054544687271,0.023297693580389023,0.0540429912507534
1758447534609357600,4.991357666015625,-0.10050344467163086,0.02189088985323906,0.057697974145412445
1758447534619330600,5.00133056640625,-0.10679249465465546,-0.015338237397372723,0.055656127631664276
1758447534629302500,5.011302490234375,-0.11520450562238693,-0.039909861981868744,0.024486858397722244
1758447534639275500,5.021275634765625,-0.15757247805595398,-0.038951657712459564,-0.028150521218776703
1758447534649247700,5.031247802734375,-0.21541833877563477,-0.05980202928185463,-0.09408394992351532
1758447534659219500,5.041219482421875,-0.27021557092666626,-0.11037545651197433,-0.17401421070098877
1758447534669192400,5.0511923828125,-0.23804497718811035,-0.21426402032375336,-0.24128767848014832
1758447534679164700,5.06116455078125,-0.28135889768600464,-0.44286948442459106,-0.2793911397457123
1758447534689137700,5.0711376953125,-0.37387004494667053,-0.6332296133041382,-0.31503787636756897
1758447534699109600,5.081109619140625,-0.4606877565383911,-0.8252983689308167,-0.3382166922092438
1758447534709082600,5.09108251953125,-0.5793314576148987,-1.0472265481948853,-0.29748356342315674
1758447534719054600,5.1010546875,-0.7015154361724854,-1.2298996448516846,-0.20988048613071442
1758447534729027600,5.111027587890625,-0.7862657308578491,-1.2783899307250977,-0.12312153726816177
1758447534738999600,5.12099951171875,-0.8182891607284546,-1.2241288423538208,-0.046466704457998276
1758447534748972500,5.13097265625,-0.7821140885353088,-1.1174535751342773,0.021712642163038254
1758447534758944500,5.140944580078125,-0.696324348449707,-0.9860582947731018,0.0638079047203064
1758447534768917500,5.15091748046875,-0.5829586386680603,-0.8506631851196289,0.07975146174430847
1758447534778889700,5.1608896484375,-0.47457653284072876,-0.7216958403587341,0.07734609395265579
1758447534788861400,5.170861328125,-0.385467529296875,-0.5868845582008362,0.06411197781562805
1758447534798834700,5.180834716796875,-0.3159635663032532,-0.4266405999660492,0.039531268179416656
1758447534808806700,5.190806640625,-0.2594391405582428,-0.24111123383045197,0.00936235673725605
1758447534818779600,5.200779541015625,-0.22204062342643738,-0.0696025863289833,-0.010757291689515114
1758447534828751600,5.210751708984375,-0.21120785176753998,0.05004849284887314,-0.009400637820363045
1758447534838724600,5.220724609375,-0.24511122703552246,0.058632127940654755,0.012902004644274712
1758447534848696800,5.23069677734375,-0.3393872380256653,-0.06584405899047852,0.04728120565414429
1758447534858669600,5.240669677734375,-0.46966907382011414,-0.30265501141548157,0.08290790766477585
1758447534868641500,5.2506416015625,-0.6135781407356262,-0.5113361477851868,0.08456151187419891
1758447534878614800,5.26061474609375,-0.7115009427070618,-0.6059790253639221,0.015903089195489883
1758447534888586500,5.27058642578125,-0.7416956424713135,-0.6388553977012634,-0.11470521241426468
1758447534898559500,5.2805595703125,-0.734334409236908,-0.6541208624839783,-0.2710612416267395
1758447534908531700,5.29053173828125,-0.713877260684967,-0.6633760929107666,-0.42377111315727234
1758447534918503400,5.30050341796875,-0.6918089985847473,-0.6538177132606506,-0.5518454313278198
1758447534928476700,5.3104765625,-0.6666051149368286,-0.6365534663200378,-0.6489740014076233
1758447534938448600,5.32044873046875,-0.6324436664581299,-0.6433863639831543,-0.7325490117073059
1758447534948421600,5.330421630859375,-0.5920630097389221,-0.689117431640625,-0.8239288926124573
1758447534958393600,5.3403935546875,-0.5768854022026062,-0.7155575752258301,-0.8947333097457886
1758447534968365300,5.350365234375,-0.6039166450500488,-0.7765781283378601,-0.9233863949775696
1758447534978337300,5.360337158203125,-0.6266903877258301,-0.7554216980934143,-0.8497891426086426
1758447534988310300,5.370310302734375,-0.17274467647075653,-0.7919489145278931,-0.47006139159202576
1758447534998282500,5.380282470703125,0.4047679305076599,-0.7113131880760193,-0.11754222959280014
1758447535008255200,5.390255126953125,0.9202290773391724,-0.3025364279747009,0.21442750096321106
1758447535018227500,5.4002275390625,1.0749903917312622,0.22292016446590424,0.3583969175815582
1758447535028200400,5.410200439453125,0.8732314109802246,0.5533362627029419,0.2359294593334198
1758447535038172200,5.420172119140625,0.6366050243377686,0.456720232963562,-0.03901129588484764
1758447535048145400,5.4301455078125,0.4570985734462738,0.1754780262708664,-0.42155781388282776
1758447535058117400,5.440117431640625,0.25777295231819153,0.037834424525499344,-0.8725616931915283
1758447535068089300,5.45008935546875,-0.02985304221510887,0.20730990171432495,-1.1381779909133911
1758447535078062300,5.460062255859375,-0.011912659741938114,0.20555859804153442,-1.2856744527816772
1758447535088034300,5.470034423828125,0.07338941842317581,0.3589479625225067,-1.3016672134399414
1758447535098007600,5.480007568359375,0.07296357303857803,0.5531845688819885,-1.2525906562805176
1758447535107979300,5.489979248046875,0.038907069712877274,0.8831413984298706,-1.1742432117462158
1758447535117952300,5.4999521484375,0.08468601107597351,1.0894389152526855,-0.9986433386802673
1758447535127924500,5.509924560546875,0.010416078381240368,1.1816776990890503,-0.7075828909873962
1758447535137897200,5.519897216796875,-0.30847054719924927,1.320949912071228,-0.355312705039978
1758447535147869400,5.529869384765625,-0.8663479685783386,1.576583743095398,0.021480929106473923
1758447535157842400,5.539842529296875,-1.549399971961975,1.7729394435882568,0.3708386719226837
1758447535167814100,5.549814208984375,-2.1079046726226807,1.7036097049713135,0.6733944416046143
1758447535177787400,5.559787353515625,-2.5101399421691895,1.4576880931854248,0.9713835120201111
1758447535187759400,5.56975927734375,-2.916776657104492,1.179369330406189,1.3397562503814697
1758447535197731300,5.5797314453125,-3.198641061782837,1.1463797092437744,1.6763017177581787
1758447535207704300,5.589704345703125,-3.292642831802368,1.077128291130066,1.868146538734436
1758447535217676300,5.59967626953125,-3.249680757522583,0.8726179003715515,1.8617736101150513
1758447535227649500,5.6096494140625,-3.059377431869507,0.528659999370575,1.694079875946045
1758447535237621200,5.619621337890625,-2.7813711166381836,-0.5030108094215393,1.4737045764923096
1758447535247594200,5.62959423828125,-2.1810684204101562,-1.8794173002243042,1.277993083000183
1758447535257566500,5.63956640625,-0.9113798141479492,-3.1182329654693604,1.2296868562698364
1758447535267539200,5.649539306640625,-0.28585085272789,-2.7950692176818848,1.0101498365402222
1758447535277511400,5.659511474609375,-0.06481833010911942,-2.38023042678833,0.5211833119392395
1758447535287484400,5.669484375,0.0630173534154892,-2.195723056793213,-0.07098743319511414
1758447535297456400,5.679456298828125,0.13384731113910675,-2.1540396213531494,-0.5999572277069092
1758447535307429400,5.689429443359375,0.08779985457658768,-2.0200467109680176,-1.0317517518997192
1758447535317401300,5.6994013671875,-0.003820344340056181,-1.886195421218872,-1.3347446918487549
1758447535327373300,5.709373291015625,-0.06577912718057632,-1.8737658262252808,-1.5142412185668945
1758447535337346300,5.71934619140625,-0.06299905478954315,-1.9196335077285767,-1.5689553022384644
1758447535347318500,5.729318603515625,0.02326933480799198,-2.016667604446411,-1.5084784030914307
1758447535357291500,5.73929150390625,0.23296557366847992,-1.9457606077194214,-1.4042984247207642
1758447535367263200,5.74926318359375,0.5492780804634094,-1.956980586051941,-1.3019198179244995
1758447535377236500,5.759236572265625,0.7869971394538879,-2.2073006629943848,-1.0398749113082886
1758447535387208400,5.76920849609375,0.9240744709968567,-2.496772289276123,-0.6523608565330505
1758447535397181200,5.77918115234375,1.063019037246704,-2.737199306488037,-0.2148384004831314
1758447535407153400,5.7891533203125,1.1780760288238525,-2.943441867828369,0.1291978806257248
1758447535417126400,5.79912646484375,1.231827974319458,-3.1972734928131104,0.3474559187889099
1758447535427098400,5.809098388671875,1.2278786897659302,-3.476893424987793,0.45502203702926636
1758447535437071400,5.8190712890625,1.230517029762268,-3.6778430938720703,0.4617028534412384
1758447535447043300,5.829043212890625,1.3215835094451904,-3.889125347137451,0.41538065671920776
1758447535457015300,5.839015380859375,1.5307610034942627,-4.148245811462402,0.3970237672328949
1758447535466988300,5.84898828125,1.8224868774414062,-4.294403076171875,0.43543699383735657
1758447535476960500,5.85896044921875,2.126546859741211,-4.262014865875244,0.5055646896362305
1758447535486933500,5.86893359375,2.348588705062866,-4.193594455718994,0.6037991642951965
1758447535496905200,5.8789052734375,2.4444351196289062,-4.176074981689453,0.7211891412734985
1758447535506878500,5.88887841796875,2.5070979595184326,-4.214662551879883,0.8602553606033325
1758447535516850400,5.898850341796875,2.5703160762786865,-4.2730207443237305,0.9784832000732422
1758447535526823200,5.9088232421875,2.6500937938690186,-4.418239116668701,1.087890386581421
1758447535536795400,5.91879541015625,2.762749671936035,-4.550269603729248,1.2157434225082397
1758447535546768400,5.928768310546875,2.9739840030670166,-4.493563652038574,1.2985715866088867
1758447535556740400,5.938740234375,3.2526357173919678,-4.303301811218262,1.2766919136047363
1758447535566713300,5.94871337890625,3.4955551624298096,-4.070667266845703,1.162445068359375
1758447535576685300,5.958685302734375,3.612452745437622,-3.8729944229125977,0.9848357439041138
1758447535586657300,5.9686572265625,3.596102714538574,-3.702993154525757,0.7867062091827393
1758447535596630300,5.97863037109375,3.5111582279205322,-3.620413303375244,0.6407953500747681
1758447535606602500,5.9886025390625,3.402107000350952,-3.6239266395568848,0.6262368559837341
1758447535616575200,5.9985751953125,3.3221778869628906,-3.6035752296447754,0.7277352809906006
1758447535626547500,6.00854736328125,3.2879505157470703,-3.500152826309204,0.8847257494926453
1758447535636520400,6.0185205078125,3.2514867782592773,-3.3109030723571777,1.0235382318496704
1758447535646492200,6.0284921875,3.1631176471710205,-3.1666200160980225,1.1246341466903687
1758447535656465400,6.03846533203125,3.0486974716186523,-3.083669662475586,1.21412193775177
1758447535666437400,6.048437255859375,2.972512722015381,-2.9743306636810303,1.26112961769104
1758447535676410400,6.058410400390625,2.960476875305176,-2.7972540855407715,1.2504801750183105
1758447535686382300,6.06838232421875,2.9707839488983154,-2.5640714168548584,1.203302264213562
1758447535696354300,6.078354248046875,2.9343392848968506,-2.3093926906585693,1.1288466453552246
1758447535706327600,6.08832763671875,2.8415284156799316,-2.1214687824249268,1.0356229543685913
1758447535716299300,6.09829931640625,2.7235255241394043,-2.0166187286376953,0.9460161924362183
1758447535726272300,6.108272216796875,2.6013171672821045,-1.9916211366653442,0.9026871919631958
1758447535736244500,6.118244384765625,2.474634885787964,-2.021453857421875,0.926148533821106
1758447535746217200,6.12821728515625,2.347304105758667,-2.0004160404205322,1.0213909149169922
1758447535756189400,6.138189453125,2.2442944049835205,-1.9199978113174438,1.1745058298110962
1758447535766162400,6.148162353515625,2.1886513233184814,-1.8609968423843384,1.3654074668884277
1758447535776134100,6.158134033203125,2.1446852684020996,-1.8744531869888306,1.5712655782699585
1758447535786107400,6.168107421875,2.0856893062591553,-1.8979452848434448,1.8159133195877075
1758447535796079400,6.178079345703125,1.9975979328155518,-1.9022362232208252,2.0801234245300293
1758447535806052400,6.18805224609375,1.8656336069107056,-1.9368810653686523,2.341761589050293
1758447535816024300,6.1980244140625,1.7056798934936523,-1.9955291748046875,2.5856454372406006
1758447535825997300,6.207997314453125,1.5535001754760742,-2.0405478477478027,2.79248046875
1758447535835969500,6.217969482421875,1.4337111711502075,-2.0728816986083984,2.9366812705993652
1758447535845941200,6.227941162109375,1.2945590019226074,-2.103451728820801,3.01611590385437
1758447535855914200,6.237914306640625,1.097636342048645,-2.0106730461120605,3.0419697761535645
1758447535865886500,6.247886474609375,0.8795943856239319,-1.8466463088989258,2.9990954399108887
1758447535875859200,6.257859130859375,0.6655116677284241,-1.4624704122543335,2.834792375564575
1758447535885831400,6.26783154296875,0.4176248013973236,-1.0640218257904053,2.5698115825653076
1758447535895804400,6.277804443359375,0.10219706594944,-1.1019684076309204,2.2984180450439453
1758447535905776400,6.2877763671875,-0.155445396900177,-1.2125526666641235,2.01762318611145
1758447535915749400,6.297749267578125,-0.2256505936384201,-0.9775888919830322,1.5758202075958252
1758447535925721300,6.307721435546875,-0.24731962382793427,-0.8609238862991333,1.1402708292007446
1758447535935694300,6.3176943359375,-0.40528982877731323,-0.8840891718864441,0.9349964261054993
1758447535945666300,6.327666259765625,-0.5599486827850342,-0.8335225582122803,0.7648996710777283
1758447535955638500,6.337638427734375,-0.7772954106330872,-0.9561869502067566,0.8696670532226562
1758447535965612000,6.347612060546875,-1.003095030784607,-0.7233508825302124,1.081985592842102
1758447535975583700,6.357583740234375,-1.1097335815429688,-0.3885587751865387,1.2818840742111206
1758447535985556700,6.367556640625,-1.0941742658615112,-0.030676430091261864,1.3152389526367188
1758447535995529000,6.377529052734375,-1.0686538219451904,0.06968958675861359,1.2513090372085571
1758447536005501700,6.387501708984375,-1.1644923686981201,0.09011124819517136,1.2790160179138184
1758447536015474000,6.397473876953125,-1.3595529794692993,-0.04107313230633736,1.5290311574935913
1758447536025447000,6.407447021484375,-1.4733684062957764,-0.03821563720703125,1.7119179964065552
1758447536035418600,6.417418701171875,-1.4934334754943848,0.06714833527803421,1.6567375659942627
1758447536045392000,6.427391845703125,-1.372175693511963,0.18120929598808289,1.30812668800354
1758447536055363800,6.43736376953125,-1.1607739925384521,0.3357243239879608,0.7872622609138489
1758447536065336800,6.4473369140625,-0.8641236424446106,0.5551818609237671,0.25288909673690796
1758447536075308800,6.457308837890625,-0.6599806547164917,0.5519106984138489,-0.033297643065452576
1758447536085280800,6.46728076171875,-0.6216761469841003,0.3113846182823181,-0.05484554544091225
1758447536095254000,6.47725390625,-0.6717627644538879,0.046337783336639404,0.021991977468132973
1758447536105225700,6.487225830078125,-0.46931639313697815,-0.06082097813487053,0.06927946209907532
1758447536115199000,6.497198974609375,-0.2692922055721283,-0.16813811659812927,0.15974198281764984
1758447536125171000,6.5071708984375,-0.20204679667949677,-0.20555752515792847,0.33003053069114685
1758447536135143700,6.517143798828125,-0.4181857407093048,-0.22086165845394135,0.4057580530643463
1758447536145116000,6.527115966796875,-0.5989962816238403,-0.21971090137958527,0.3658979833126068
1758447536155089000,6.5370888671875,-0.7118876576423645,-0.11857815086841583,0.29516682028770447
1758447536165060900,6.547060791015625,-0.7889549732208252,-0.007586733438074589,0.14137235283851624
1758447536175033900,6.557033935546875,-0.849937379360199,0.14242778718471527,-0.05597401782870293
1758447536185005800,6.567005859375,-0.8739715814590454,0.22507093846797943,-0.16182497143745422
1758447536194977800,6.576977783203125,-0.9181238412857056,0.3004351854324341,-0.30334749817848206
1758447536204950800,6.58695068359375,-0.9484891295433044,0.11879546195268631,-0.4774590730667114
1758447536214923000,6.596923095703125,-0.6486645936965942,0.12419821321964264,-0.6227760910987854
1758447536224896000,6.60689599609375,-0.26872244477272034,0.40274778008461,-0.6873783469200134
1758447536234867700,6.61686767578125,0.3145870566368103,0.849446177482605,-1.1398848295211792
1758447536244841000,6.626841064453125,0.12042498588562012,0.344742089509964,-1.0993839502334595
1758447536254813000,6.63681298828125,-0.6245921850204468,0.35242557525634766,-0.4236956834793091
1758447536264785700,6.64678564453125,-0.9473099708557129,0.2206076681613922,-0.22086769342422485
1758447536274758000,6.6567578125,-0.9459331035614014,0.130738765001297,-0.3166663646697998
1758447536284731000,6.66673095703125,-0.87324059009552,0.21958895027637482,-0.5569674372673035
1758447536294702800,6.676702880859375,-0.8073824644088745,0.36075645685195923,-0.6686963438987732
1758447536304675800,6.68667578125,-0.8512769341468811,0.46260759234428406,-0.7012245059013367
1758447536314647800,6.696647705078125,-0.8807154893875122,0.5460492372512817,-0.7350026965141296
1758447536324619800,6.706619873046875,-0.9578620195388794,0.5958719253540039,-0.7818342447280884
1758447536334592800,6.7165927734375,-1.0999714136123657,0.4013373851776123,-0.9730553030967712
1758447536344565000,6.72656494140625,-1.09102463722229,0.09764095395803452,-1.241341233253479
1758447536354538000,6.7365380859375,-0.8293434381484985,-0.24487166106700897,-1.2339218854904175
1758447536364509700,6.746509765625,-0.32463619112968445,-0.5299510955810547,-1.0901949405670166
1758447536374483000,6.75648291015625,0.1524333953857422,-0.8372556567192078,-0.6860628724098206
1758447536384455000,6.766454833984375,0.6434334516525269,-0.9739680886268616,-0.21039780974388123
1758447536394428000,6.776427978515625,1.3204739093780518,-0.7445551156997681,-0.042387232184410095
1758447536404399900,6.78639990234375,1.8206318616867065,-0.6618173718452454,-0.03052525967359543
1758447536414372900,6.796372802734375,2.0319690704345703,-0.801115870475769,-0.008172817528247833
1758447536424344800,6.8063447265625,2.1446568965911865,-0.8325235843658447,0.016771426424384117
1758447536434317800,6.81631787109375,2.217351198196411,-0.6859173774719238,0.06664285063743591
1758447536444290000,6.8262900390625,2.007880210876465,-0.47891607880592346,0.15818403661251068
1758447536454261800,6.83626171875,1.7713422775268555,-0.5038637518882751,0.17217841744422913
1758447536464234800,6.84623486328125,1.7234728336334229,-0.3166622519493103,0.025715317577123642
1758447536474207000,6.85620703125,1.9147529602050781,0.0987088531255722,-0.317501425743103
1758447536484179700,6.8661796875,2.353878974914551,0.5407516360282898,-0.7402098774909973
1758447536494152000,6.87615185546875,2.836193561553955,0.8915948271751404,-1.1871001720428467
1758447536504125000,6.886125,3.2332780361175537,1.0740392208099365,-1.6044671535491943
1758447536514096600,6.8960966796875,3.544955015182495,1.0283830165863037,-1.9812657833099365
1758447536524070000,6.90606982421875,3.8069777488708496,0.8488261699676514,-2.328139066696167
1758447536534041900,6.916041748046875,4.100636959075928,0.5503105521202087,-2.613889694213867
1758447536544014800,6.926014892578125,4.42512845993042,0.03881309926509857,-2.741917848587036
1758447536553986800,6.93598681640625,4.73543119430542,-0.5735624432563782,-2.719006061553955
1758447536563958800,6.945958740234375,4.974339962005615,-1.1073824167251587,-2.611973285675049
1758447536573932000,6.95593212890625,5.026673793792725,-1.2979938983917236,-2.3928515911102295
1758447536583903700,6.96590380859375,4.779848575592041,-1.3111919164657593,-2.06419038772583
1758447536593876700,6.975876708984375,4.157026290893555,-1.1874006986618042,-1.586079478263855
1758447536603849000,6.985848876953125,3.2634782791137695,-1.1578611135482788,-1.0995943546295166
1758447536613821700,6.99582177734375,2.1771440505981445,-1.164643406867981,-0.6435307264328003
1758447536623794000,7.0057939453125,0.9918884038925171,-1.0557711124420166,-0.30928152799606323
1758447536633767000,7.015766845703125,0.19718356430530548,-1.014944076538086,-0.028429105877876282
1758447536643738600,7.025738525390625,-0.10472507774829865,-1.0350340604782104,0.2103559821844101
1758447536653712000,7.0357119140625,-0.06607754528522491,-1.0796122550964355,0.405318021774292
1758447536663683800,7.045683837890625,0.12622018158435822,-1.072758436203003,0.563994288444519
1758447536673656800,7.05565673828125,0.37919917702674866,-1.0557587146759033,0.7282807230949402
1758447536683628800,7.06562890625,0.685650110244751,-1.005255937576294,0.907545804977417
1758447536693600800,7.075600830078125,0.9865795969963074,-0.7565603852272034,1.1255435943603516
1758447536703574000,7.085573974609375,1.2379546165466309,-0.4201928973197937,1.3673615455627441
1758447536713545700,7.095545654296875,1.5083298683166504,-0.3001197576522827,1.499091625213623
1758447536723519000,7.10551904296875,1.6521821022033691,-0.5706720948219299,1.401754379272461
1758447536733491000,7.115490966796875,1.52471125125885,-1.1071866750717163,1.0852552652359009
1758447536743463700,7.125463623046875,1.3653651475906372,-1.4857977628707886,0.6986629366874695
1758447536753436000,7.135435791015625,1.2514439821243286,-1.5316041707992554,0.3503270447254181
1758447536763409000,7.145408935546875,1.1990970373153687,-1.2421096563339233,0.0861549824476242
1758447536773380900,7.155380859375,1.264892816543579,-0.720521867275238,-0.03235914558172226
1758447536783353900,7.165353759765625,1.4102624654769897,-0.22601456940174103,-0.05052811652421951
1758447536793325800,7.175325927734375,1.5990195274353027,0.17211203277111053,-0.006858666427433491
1758447536803299000,7.185299072265625,1.75881028175354,0.4573971927165985,0.05591605603694916
1758447536813270800,7.195270751953125,1.8897992372512817,0.6002853512763977,0.10287371277809143
1758447536823243000,7.205242919921875,2.118769645690918,0.648379385471344,0.15123574435710907
1758447536833216000,7.215216064453125,2.468353748321533,0.7217982411384583,0.23375380039215088
1758447536843187700,7.225187744140625,2.8796706199645996,0.8726423382759094,0.3380829989910126
1758447536853161000,7.235160888671875,3.230250120162964,0.95747971534729,0.4395393133163452
1758447536863133000,7.2451328125,3.4513964653015137,0.8638086318969727,0.5104917883872986
1758447536873105700,7.255105712890625,3.583728551864624,0.6214377880096436,0.5829113721847534
1758447536883078000,7.265077880859375,3.649132013320923,0.23729218542575836,0.6789802312850952
1758447536893051000,7.27505078125,3.6570537090301514,-0.22164689004421234,0.8059735894203186
1758447536903022800,7.28502294921875,3.6556880474090576,-0.5957070589065552,0.9441600441932678
1758447536912995800,7.294995849609375,3.6482884883880615,-0.9452171325683594,1.0209602117538452
1758447536922967800,7.3049677734375,3.6402761936187744,-1.297113299369812,1.0495214462280273
1758447536932941000,7.314941162109375,3.64212965965271,-1.7191417217254639,1.086272120475769
1758447536942912800,7.324912841796875,4.8179755210876465,-2.841827630996704,1.0322582721710205
1758447536952885000,7.334885009765625,6.816932201385498,-4.103433609008789,1.0322247743606567
1758447536962858000,7.34485791015625,7.1456475257873535,-5.718243598937988,0.5816041827201843
1758447536972830000,7.354829833984375,5.772152423858643,-7.918949604034424,-0.6907204985618591
1758447536982803200,7.36480322265625,3.8901846408843994,-9.588748931884766,-1.5722012519836426
1758447536992775200,7.374775146484375,2.4463605880737305,-9.813847541809082,-1.8656877279281616
1758447537002748000,7.384747802734375,1.42423415184021,-8.488993644714355,-1.7133795022964478
1758447537012720000,7.39472021484375,0.4912497401237488,-6.565636157989502,-1.403519630432129
1758447537022693000,7.404693115234375,-0.23815150558948517,-4.726571083068848,-1.0993655920028687
1758447537032665000,7.4146650390625,-0.7270428538322449,-3.003605365753174,-0.7860854864120483
1758447537042638000,7.42463818359375,-1.0412240028381348,-0.7318861484527588,-0.11395100504159927
1758447537052610000,7.434610107421875,-1.2746628522872925,1.3349425792694092,0.6214654445648193
1758447537062583300,7.444583251953125,-1.4052402973175049,2.8527605533599854,1.1772369146347046
1758447537072555000,7.454554931640625,-1.3543062210083008,3.7481918334960938,1.4630545377731323
1758447537082527200,7.46452734375,-1.1432597637176514,4.31592321395874,1.5820188522338867
1758447537092500200,7.474500244140625,-0.9150686860084534,4.464143753051758,1.5123591423034668
1758447537102472200,7.48447216796875,-0.7379458546638489,4.221574783325195,1.276837706565857
1758447537112445200,7.494445068359375,-0.5920659303665161,3.7088875770568848,0.9626251459121704
1758447537122417200,7.504417236328125,-0.3709821105003357,3.0856540203094482,0.6610348224639893
1758447537132390100,7.51439013671875,-0.15753456950187683,2.439795970916748,0.3647293746471405
1758447537142362000,7.524362060546875,-0.06172487884759903,1.889325737953186,0.057301200926303864
1758447537152335000,7.534335205078125,-0.0068834698759019375,1.4949973821640015,-0.2474435269832611
1758447537162307000,7.54430712890625,0.04520392790436745,1.2002395391464233,-0.5219675898551941
1758447537172280000,7.554280029296875,0.10678793489933014,0.9677751660346985,-0.7462989687919617
1758447537182252300,7.564252197265625,0.1733214557170868,0.7702056169509888,-0.8955286145210266
1758447537192225300,7.574225341796875,0.23805144429206848,0.5558832287788391,-0.9687293171882629
1758447537202197000,7.584197021484375,0.2463400810956955,0.355562686920166,-0.9439733028411865
1758447537212169200,7.594169189453125,0.2414499819278717,0.16455093026161194,-0.8372585773468018
1758447537222142200,7.60414208984375,0.2379145622253418,-0.037767667323350906,-0.6811895966529846
1758447537232114200,7.6141142578125,0.21625587344169617,-0.22954455018043518,-0.5515480041503906
1758447537242087200,7.624087158203125,0.21338559687137604,-0.3761591613292694,-0.3565565049648285
1758447537252059100,7.63405908203125,0.2038661241531372,-0.4680664539337158,-0.16463950276374817
1758447537262032100,7.6440322265625,0.16325679421424866,-0.5189414024353027,-0.025901656597852707
1758447537272004000,7.654004150390625,0.11797667294740677,-0.5511680245399475,0.06012243777513504
1758447537281977000,7.66397705078125,0.07538401335477829,-0.5507005453109741,0.12042034417390823
1758447537291949000,7.673948974609375,0.056266240775585175,-0.48732849955558777,0.15898610651493073
1758447537301922000,7.683922119140625,0.055914171040058136,-0.36079612374305725,0.17269420623779297
1758447537311894300,7.693894287109375,0.049955882132053375,-0.19848284125328064,0.15550535917282104
1758447537321867000,7.703866943359375,0.02644328586757183,-0.02533060871064663,0.13539265096187592
1758447537331839000,7.7138388671875,0.00027799420058727264,0.09418939799070358,0.12397143244743347
1758447537341811200,7.723811279296875,-0.03506702184677124,0.17227262258529663,0.1498776376247406
1758447537351784000,7.733783935546875,-0.04740464687347412,0.20672060549259186,0.20936574041843414
1758447537361756200,7.743756103515625,-0.07582689076662064,0.20135578513145447,0.27986836433410645
1758447537371729200,7.753729248046875,-0.08220969140529633,0.18056714534759521,0.3486972451210022
1758447537381701000,7.763701171875,-0.07782840728759766,0.13229525089263916,0.39061975479125977
1758447537391674000,7.773674072265625,-0.0747295543551445,0.05230268836021423,0.39336493611335754
1758447537401646000,7.78364599609375,-0.06539822369813919,-0.03286069631576538,0.3651672601699829
1758447537411619000,7.793619140625,-0.05077027529478073,-0.10564062744379044,0.30815643072128296
1758447537421591000,7.803591064453125,-0.02789424918591976,-0.15278072655200958,0.23033972084522247
1758447537431564000,7.81356396484375,-0.004800914786756039,-0.17855292558670044,0.14206019043922424
1758447537441536300,7.823536376953125,0.015957394614815712,-0.17732954025268555,0.05486384779214859
1758447537451509000,7.833509033203125,0.0290572177618742,-0.15078340470790863,-0.019606124609708786
1758447537461481200,7.843481201171875,0.035486236214637756,-0.1023019328713417,-0.07442314177751541
1758447537471453200,7.853453125,0.03485320135951042,-0.03789977356791496,-0.1182023137807846
1758447537481426000,7.863426025390625,0.036206137388944626,0.03113272786140442,-0.1544424295425415
1758447537491398100,7.873398193359375,0.038608841598033905,0.09346800297498703,-0.18805605173110962
1758447537501371100,7.88337109375,0.038272175937891006,0.15105095505714417,-0.2211451530456543
1758447537511343000,7.893343017578125,0.045125287026166916,0.21507814526557922,-0.2288914918899536
1758447537521316000,7.903316162109375,0.04939653351902962,0.26965391635894775,-0.22542521357536316
1758447537531288000,7.9132880859375,0.04266272857785225,0.30447500944137573,-0.2184160351753235
1758447537541261300,7.92326123046875,0.02473197877407074,0.34989964962005615,-0.20251306891441345
1758447537551233000,7.93323291015625,0.0034671707544475794,0.43094149231910706,-0.15211620926856995
1758447537561206000,7.9432060546875,0.03147285804152489,0.5138786435127258,-0.0643499568104744
1758447537571178200,7.95317822265625,0.08718991279602051,0.5716562271118164,0.030715038999915123
1758447537581151000,7.96315087890625,0.12569347023963928,0.5676844120025635,0.1010931208729744
1758447537591123200,7.973123291015625,0.1514931172132492,0.4880514144897461,0.14897754788398743
1758447537601096200,7.98309619140625,0.15970930457115173,0.3267990052700043,0.16469761729240417
1758447537611068000,7.99306787109375,0.13673394918441772,0.08374078571796417,0.14513137936592102
1758447537621040000,8.0030400390625,0.10978485643863678,-0.1884017139673233,0.12734004855155945
1758447537631013000,8.01301318359375,0.09257125109434128,-0.42937225103378296,0.1300884336233139
1758447537640985000,8.022985107421874,0.07286480814218521,-0.5871137380599976,0.1453953981399536
1758447537650958000,8.0329580078125,0.03123321197926998,-0.6465871334075928,0.14857999980449677
1758447537660930000,8.042929931640625,-0.015888681635260582,-0.6034557819366455,0.14057424664497375
1758447537670903300,8.0529033203125,-0.05793333798646927,-0.476197212934494,0.13288277387619019
1758447537680875000,8.062875,-0.10713192820549011,-0.30585259199142456,0.13046309351921082
1758447537690848000,8.072847900390625,-0.1467488408088684,-0.1347823143005371,0.13222691416740417
1758447537700820200,8.0828203125,-0.1583428829908371,0.010725541040301323,0.1294754296541214
1758447537710793000,8.09279296875,-0.15979616343975067,0.11607540398836136,0.10969747602939606
1758447537720765200,8.10276513671875,-0.1534005105495453,0.19312156736850739,0.06758299469947815
1758447537730738200,8.11273828125,-0.12727437913417816,0.2495584636926651,0.00946216844022274
1758447537740710100,8.122710205078125,-0.09375380724668503,0.28446394205093384,-0.057475920766592026
1758447537750683100,8.13268310546875,-0.06088373810052872,0.279936820268631,-0.11701726913452148
1758447537760655000,8.142655029296876,-0.028342310339212418,0.23345163464546204,-0.15724194049835205
1758447537770627000,8.152626953125,0.004311239346861839,0.15868206322193146,-0.18365730345249176
1758447537780600000,8.16260009765625,0.03249574080109596,0.0790436863899231,-0.1970692276954651
1758447537790572300,8.172572265625,0.05842667445540428,0.005659750197082758,-0.2048291563987732
1758447537800545300,8.182545166015625,0.07674218714237213,-0.048337213695049286,-0.20203369855880737
1758447537810517000,8.19251708984375,0.08961564302444458,-0.07895131409168243,-0.18326294422149658
1758447537820490200,8.202490234375,0.0949169248342514,-0.0897727981209755,-0.14987997710704803
1758447537830462200,8.212462158203126,0.08735008537769318,-0.09462161362171173,-0.10107115656137466
1758447537840435000,8.22243505859375,0.06553765386343002,-0.11529717594385147,-0.050035636872053146
1758447537850407200,8.2324072265625,0.043813448399305344,-0.15619826316833496,-0.006076168268918991
1758447537860380200,8.242380126953124,0.027729826048016548,-0.19382181763648987,0.026695651933550835
1758447537870352100,8.25235205078125,0.014396708458662033,-0.2152903527021408,0.05074213072657585
1758447537880325000,8.2623251953125,-0.0045506926253438,-0.21439193189144135,0.06869588047266006
1758447537890297000,8.272297119140624,-0.02637369930744171,-0.2019842565059662,0.0784853920340538
1758447537900269000,8.28226904296875,-0.048665765672922134,-0.19255518913269043,0.08497370034456253
1758447537910242000,8.292241943359375,-0.062328848987817764,-0.18012061715126038,0.08477076888084412
1758447537920214300,8.30221435546875,-0.06252835690975189,-0.1603633314371109,0.07104706764221191
1758447537930187000,8.31218701171875,-0.05481052026152611,-0.13195380568504333,0.05292132869362831
1758447537940159000,8.322158935546875,-0.048414021730422974,-0.10966231673955917,0.03010852262377739
1758447537950132200,8.33213232421875,-0.048361822962760925,-0.08972429484128952,0.009742533788084984
1758447537960104000,8.34210400390625,-0.04369106516242027,-0.07450880110263824,-0.0025883950293064117
1758447537970076700,8.35207666015625,-0.028968045487999916,-0.060975681990385056,-0.016915403306484222
1758447537980048600,8.362048583984375,-0.018191218376159668,-0.0522577203810215,-0.02874864637851715
1758447537990021600,8.372021728515625,-0.008611027151346207,-0.04962411895394325,-0.041231680661439896
1758447537999993900,8.381993896484374,-0.003634420922026038,-0.05539963021874428,-0.04778212681412697
1758447538009966800,8.391966796875,-0.0023667558562010527,-0.06090598180890083,-0.050363264977931976
1758447538019938800,8.401938720703125,-0.00568755716085434,-0.05852757766842842,-0.0505390465259552
1758447538029911800,8.411911865234375,-0.011343578808009624,-0.04703443869948387,-0.046833790838718414
1758447538039883800,8.4218837890625,-0.01521365437656641,-0.032985787838697433,-0.03622902184724808
1758447538049855700,8.431855712890625,-0.018713312223553658,-0.019035881385207176,-0.024248261004686356
1758447538059828700,8.441828857421875,-0.023313693702220917,-0.0036880099214613438,-0.016873277723789215
1758447538069801000,8.451801025390624,-0.022159215062856674,0.019418373703956604,-0.016932133585214615
1758447538079773700,8.461773681640626,-0.01671012118458748,0.04727397486567497,-0.02292744442820549
1758447538089745700,8.47174560546875,-0.016146328300237656,0.07499375194311142,-0.02617010846734047
1758447538099719000,8.481718994140625,-0.01593167707324028,0.09108403325080872,-0.02638288214802742
1758447538109690600,8.491690673828124,-0.022986123338341713,0.09537838399410248,-0.02434210106730461
1758447538119663600,8.50166357421875,-0.032375518232584,0.09374244511127472,-0.019509464502334595
1758447538129635800,8.5116357421875,-0.04249206930398941,0.0947485864162445,-0.00786692276597023
1758447538139608800,8.52160888671875,-0.04844658821821213,0.09264115244150162,0.011038180440664291
1758447538149580800,8.531580810546876,-0.0492095872759819,0.07916795462369919,0.03864024579524994
1758447538159553800,8.5415537109375,-0.04673017933964729,0.0527440570294857,0.0673893615603447
1758447538169525800,8.55152587890625,-0.03958811238408089,0.010339606553316116,0.09458023309707642
1758447538179498800,8.561498779296874,-0.028200363740324974,-0.040339965373277664,0.10745231807231903
1758447538189470700,8.571470703125,-0.015504808165133,-0.08629893511533737,0.10540860891342163
1758447538199443700,8.581443603515625,0.0012118876911699772,-0.1232418343424797,0.09069472551345825
1758447538209415700,8.591415771484375,0.01394179742783308,-0.1477636992931366,0.07106136530637741
1758447538219387600,8.6013876953125,0.024031907320022583,-0.167129248380661,0.049478624016046524
1758447538229361000,8.61136083984375,0.03506698086857796,-0.16207723319530487,0.02479005604982376
1758447538239332600,8.62133251953125,0.040833402425050735,-0.1289547234773636,0.0013522710651159286
1758447538249305600,8.6313056640625,0.03904402628540993,-0.06731506437063217,-0.020398298278450966
1758447538259277800,8.64127783203125,0.029763108119368553,0.004349672235548496,-0.03797934949398041
1758447538269250800,8.651250732421875,0.01457137055695057,0.06606017798185349,-0.03805844858288765
1758447538279222800,8.661222900390625,-0.0030901767313480377,0.10152335464954376,-0.03295047953724861
1758447538289195800,8.67119580078125,-0.01893705129623413,0.10312284529209137,-0.029971733689308167
1758447538299167700,8.681167724609375,-0.026071853935718536,0.08569471538066864,-0.028522510081529617
1758447538309140700,8.691140625,-0.03317263722419739,0.06503736972808838,-0.03203468769788742
1758447538319112700,8.70111279296875,-0.03319200873374939,0.04863348603248596,-0.037141893059015274
1758447538329086000,8.7110859375,-0.029926175251603127,0.03814089670777321,-0.04205382615327835
1758447538339057700,8.7210576171875,-0.02275671623647213,0.02545234188437462,-0.03554543852806091
1758447538349030700,8.73103076171875,-0.017603233456611633,-0.0014663584297522902,-0.023397160694003105
1758447538359003000,8.7410029296875,-0.013678757473826408,-0.04024606570601463,-0.005074742250144482
1758447538368974600,8.750974609375,-0.009630752727389336,-0.08163584768772125,0.004560041707009077
1758447538378947800,8.76094775390625,-0.0063896821811795235,-0.10125935822725296,0.009784657508134842
1758447538388919800,8.770919921875,-0.004074063152074814,-0.08734913915395737,0.008410731330513954
1758447538398892800,8.780892822265624,0.0014786615502089262,-0.05063512921333313,0.007733042351901531
1758447538408864800,8.79086474609375,0.004281105939298868,-0.01952994056046009,0.006467774510383606
1758447538418837800,8.800837646484375,0.009063192643225193,-0.004094487987458706,0.00045603327453136444
1758447538428810000,8.81081005859375,0.00552624836564064,0.0029455781914293766,-0.008392319083213806
1758447538438782700,8.82078271484375,0.0032030604779720306,0.013896720483899117,-0.01969803497195244
1758447538448754700,8.830754638671875,0.004404944833368063,0.03219529986381531,-0.03427431732416153
1758447538458728000,8.84072802734375,0.0011656235437840223,0.04849807918071747,-0.04277363047003746
1758447538468699600,8.85069970703125,-0.0002474496141076088,0.05625453591346741,-0.04411400109529495
1758447538478672600,8.860672607421876,-0.0019220395479351282,0.05599086731672287,-0.03491407260298729
1758447538488644900,8.870644775390625,-0.00304402899928391,0.05116735026240349,-0.021901067346334457
1758447538498617900,8.880617919921875,-0.006221567280590534,0.04275733232498169,-0.007359259761869907
1758447538508589800,8.89058984375,-0.008041304536163807,0.029376545920968056,0.002962087746709585
1758447538518561800,8.900561767578125,-0.005919868592172861,0.014200331643223763,0.006800656672567129
1758447538528534800,8.91053466796875,-0.0012979521416127682,-0.0017133880173787475,0.007584691513329744
1758447538538506800,8.9205068359375,-0.004537034779787064,-0.017572224140167236,0.009685775265097618
1758447538548479700,8.930479736328126,-0.008960812352597713,-0.03813475742936134,0.018031856045126915
1758447538558451700,8.94045166015625,-0.0104537857696414,-0.05468761920928955,0.026308391243219376
1758447538568424700,8.9504248046875,-0.0120474211871624,-0.06033698096871376,0.028040509670972824
1758447538578396700,8.960396728515626,-0.010511800646781921,-0.049158982932567596,0.016477733850479126
1758447538588370000,8.970369873046875,-0.0051756249740719795,-0.02601185068488121,0.0022263596765697002
1758447538598341600,8.980341552734375,-0.0011688601225614548,-0.004570287186652422,-0.014493108727037907
1758447538608315000,8.99031494140625,-0.002930807415395975,-0.0015348163433372974,-0.025950560346245766
1758447538618286800,9.000286865234376,-0.0023534775245934725,-0.0072410823777318,-0.034015826880931854
1758447538628259600,9.010259521484375,-0.006206005811691284,-0.01524015236645937,-0.03607871010899544
1758447538638231800,9.020231689453125,-0.008802475407719612,-0.018929388374090195,-0.038080547004938126
1758447538648204800,9.030204833984374,-0.011865377426147461,-0.02359098568558693,-0.03378433361649513
1758447538658176800,9.0401767578125,-0.016595792025327682,-0.02594367228448391,-0.021480834111571312
1758447538668149800,9.050149658203125,-0.017996082082390785,-0.025358576327562332,-0.011286253109574318
1758447538678121700,9.060121826171875,-0.021806687116622925,-0.02439899742603302,-0.0035409172996878624
1758447538688093700,9.07009375,-0.0228692889213562,-0.023707374930381775,0.00375561136752367
1758447538698066700,9.080066650390625,-0.019600408151745796,-0.024654895067214966,0.009209057316184044
1758447538708039000,9.090038818359375,-0.018488271161913872,-0.03209922835230827,0.008095856755971909
1758447538718012000,9.100011962890624,-0.014291134662926197,-0.040200021117925644,0.004230251535773277
1758447538727983600,9.109983642578126,-0.00985457468777895,-0.043106596916913986,-0.008937215432524681
1758447538737956900,9.119956787109375,-0.003925306722521782,-0.03410086780786514,-0.024684181436896324
1758447538747928800,9.1299287109375,0.000230822479352355,-0.016068335622549057,-0.035392217338085175
1758447538757901600,9.139901611328124,0.00499041797593236,0.006071069277822971,-0.044587887823581696
1758447538767873800,9.149873779296875,0.009828582406044006,0.023451391607522964,-0.047527216374874115
1758447538777846800,9.1598466796875,0.01261295285075903,0.03750322386622429,-0.046458397060632706
1758447538787818800,9.16981884765625,0.014709392562508583,0.04471959173679352,-0.0439654104411602
1758447538797791700,9.179791748046876,0.013379260897636414,0.04611911252140999,-0.04243959113955498
1758447538807763700,9.189763671875,0.0075269644148647785,0.04571990668773651,-0.03903873637318611
1758447538817735700,9.199735595703125,0.005117111839354038,0.04038684442639351,-0.030836064368486404
1758447538827708700,9.209708740234374,0.0033623548224568367,0.03022315725684166,-0.015012625604867935
1758447538837681000,9.219680908203125,0.0006158722098916769,0.015414312481880188,0.010670997202396393
1758447538847654000,9.22965380859375,0.0014992428477853537,-0.007328817155212164,0.03516435623168945
1758447538857625600,9.23962548828125,0.004597297869622707,-0.03481157496571541,0.05680573731660843
1758447538867598800,9.249598876953126,0.008684185333549976,-0.06147833913564682,0.06480932980775833
1758447538877570800,9.25957080078125,0.012267276644706726,-0.08628983050584793,0.061772216111421585
1758447538887543600,9.26954345703125,0.015193025581538677,-0.10351302474737167,0.04751152545213699
1758447538897515800,9.279515869140624,0.01361320074647665,-0.10351108759641647,0.027410142123699188
1758447538907488800,9.28948876953125,0.010475730523467064,-0.08587483316659927,0.009442324750125408
1758447538917460700,9.299460693359375,0.006797748617827892,-0.062353748828172684,-0.0012446227483451366
1758447538927433700,9.309433837890625,0.0008455838542431593,-0.03970196470618248,-0.008566451258957386
1758447538937406000,9.319406005859374,-0.006706031039357185,-0.023041319102048874,-0.015758167952299118
1758447538947379000,9.32937890625,-0.011266161687672138,-0.008492202498018742,-0.02533463016152382
1758447538957350700,9.3393505859375,-0.016205262392759323,0.00381906284019351,-0.03495664522051811
1758447538967324000,9.349323974609375,-0.019093994051218033,0.019816938787698746,-0.039124757051467896
1758447538977296000,9.3592958984375,-0.021744824945926666,0.025994515046477318,-0.03816790133714676
1758447538987267800,9.369267822265625,-0.022098492830991745,0.020032495260238647,-0.0323246605694294
1758447538997240800,9.37924072265625,-0.018779698759317398,0.008619586937129498,-0.02602957934141159
1758447539007212800,9.389212890625,-0.018687285482883453,0.006286391988396645,-0.027782205492258072
1758447539017185800,9.399185791015626,-0.014999340288341045,0.02401185967028141,-0.03276737779378891
1758447539027157800,9.40915771484375,-0.010442560538649559,0.04988052323460579,-0.0365293063223362
1758447539037130800,9.419130859375,-0.0066321538761258125,0.06505291163921356,-0.036279384046792984
1758447539047102700,9.429102783203126,-0.005574879236519337,0.06815548986196518,-0.035319846123456955
1758447539057075700,9.43907568359375,-0.006106135435402393,0.06023409590125084,-0.03137608990073204
1758447539067048000,9.4490478515625,-0.0053383465856313705,0.05071116238832474,-0.027366433292627335
1758447539077021000,9.45902099609375,-0.005119931884109974,0.045359205454587936,-0.01789719983935356
1758447539086992600,9.46899267578125,-0.005534319207072258,0.039740998297929764,-0.007279177196323872
1758447539096966000,9.4789658203125,-0.0028800969012081623,0.03715483471751213,0.008914530277252197
1758447539106937900,9.488937744140625,-0.0002241262700408697,0.025145310908555984,0.027440277859568596
1758447539116910600,9.49891064453125,0.000951091293245554,0.007640156429260969,0.042055342346429825
1758447539126882800,9.5088828125,0.0034283637069165707,-0.02285570092499256,0.04953376576304436
1758447539136854800,9.518854736328125,0.008482511155307293,-0.04698314145207405,0.046992577612400055
1758447539146827800,9.528827880859374,0.011769650503993034,-0.056623250246047974,0.04040658101439476
1758447539156799700,9.5387998046875,0.013025441206991673,-0.048336245119571686,0.038573313504457474
1758447539166772700,9.548772705078125,0.012996412813663483,-0.03522950038313866,0.04216964542865753
1758447539176744700,9.55874462890625,0.014278500340878963,-0.03558218851685524,0.04803512617945671
1758447539186717700,9.5687177734375,0.013163167983293533,-0.049086544662714005,0.04971238598227501
1758447539196690000,9.57868994140625,0.015357421711087227,-0.0640251636505127,0.040299396961927414
1758447539206662700,9.58866259765625,0.011998642235994339,-0.07399177551269531,0.020583216100931168
1758447539216634600,9.598634521484374,0.01164634432643652,-0.07417640835046768,-0.002601353917270899
1758447539226607900,9.60860791015625,0.007347469683736563,-0.06638879328966141,-0.021208327263593674
1758447539236579600,9.61857958984375,-0.00043348618783056736,-0.058071743696928024,-0.028841201215982437
1758447539246552800,9.628552734375,-0.007885542698204517,-0.05328977108001709,-0.021676763892173767
1758447539256524800,9.63852490234375,-0.00950676016509533,-0.06260307878255844,-0.008340628817677498
1758447539266497800,9.648497802734376,-0.008062793873250484,-0.0792667493224144,-0.0008193294052034616
1758447539276469800,9.6584697265625,-0.0026186536997556686,-0.09609547257423401,-0.004043325781822205
1758447539286441700,9.668441650390625,0.0022280332632362843,-0.10302181541919708,-0.016218233853578568
1758447539296415000,9.6784150390625,0.011919740587472916,-0.11087348312139511,-0.03153904899954796
1758447539306386700,9.68838671875,0.01504522655159235,-0.1251312494277954,-0.04124227538704872
1758447539316359700,9.698359619140625,0.017929693683981895,-0.15346035361289978,-0.04603304713964462
1758447539326332000,9.708331787109374,0.015357613563537598,-0.18736718595027924,-0.04921578988432884
1758447539336304600,9.7183046875,0.015665628015995026,-0.20942431688308716,-0.05311712250113487
1758447539346276900,9.72827685546875,0.017644090577960014,-0.21314476430416107,-0.055789604783058167
1758447539356249900,9.738249755859375,0.017007818445563316,-0.19309400022029877,-0.060300614684820175
1758447539366221600,9.7482216796875,0.01721634343266487,-0.1676216572523117,-0.05694982409477234
1758447539376194800,9.75819482421875,0.01518823578953743,-0.14615024626255035,-0.04848688468337059
1758447539386166800,9.768166748046875,0.014570116065442562,-0.13659055531024933,-0.039972227066755295
1758447539396139800,9.778139892578125,0.012141692452132702,-0.1380390077829361,-0.030471868813037872
1758447539406111700,9.78811181640625,0.0060459827072918415,-0.14867381751537323,-0.0221492238342762
1758447539416084700,9.798084716796875,0.0029032633174210787,-0.15436407923698425,-0.015410125255584717
1758447539426057000,9.808056884765625,0.0005173373501747847,-0.14960207045078278,-0.009024931117892265
1758447539436028700,9.818028564453124,-0.002024231478571892,-0.12977755069732666,-0.003884575329720974
1758447539446001700,9.828001708984376,-0.008035251870751381,-0.11011169105768204,0.007093773689121008
1758447539455974000,9.837973876953125,-0.013000071980059147,-0.0962166115641594,0.019349973648786545
1758447539465946600,9.847946533203125,-0.016683755442500114,-0.08871954679489136,0.03142128512263298
1758447539475918800,9.8579189453125,-0.015874454751610756,-0.08458173274993896,0.0390801802277565
1758447539485891800,9.867891845703125,-0.008561414666473866,-0.07600182294845581,0.040793392807245255
1758447539495863600,9.877863525390625,-0.0013973198365420103,-0.07113022357225418,0.03551345691084862
1758447539505836800,9.8878369140625,0.00888621062040329,-0.07996099442243576,0.026350850239396095
1758447539515808800,9.897808837890626,0.024595588445663452,-0.1002567857503891,0.009324495680630207
1758447539525781800,9.90778173828125,0.03684559464454651,-0.12246675044298172,-0.030178703367710114
1758447539535753700,9.917753662109375,0.027968786656856537,-0.13358314335346222,-0.09098014235496521
1758447539545726700,9.927726806640624,0.01800989732146263,-0.13016843795776367,-0.15755969285964966
1758447539555699000,9.937698974609376,0.026855506002902985,-0.10993410646915436,-0.2077304571866989
1758447539565671700,9.947671630859375,0.039426159113645554,-0.09322889149188995,-0.25169631838798523
1758447539575644000,9.957643798828125,0.03608065843582153,-0.0768091008067131,-0.27044135332107544
1758447539585616000,9.967615966796876,-0.0014816292095929384,-0.04968719929456711,-0.24637249112129211
1758447539595588600,9.977588623046875,-0.031563978642225266,0.0052931178361177444,-0.17096133530139923
1758447539605560800,9.987560791015625,-0.04620097577571869,0.07264712452888489,-0.07275407761335373
1758447539615533800,9.997533935546874,-0.06726018339395523,0.12298858165740967,0.017108460888266563
1758447539625505800,10.007505859375,-0.08277469128370285,0.14086505770683289,0.09445863962173462
1758447539635478800,10.017478759765625,-0.07370496541261673,0.12365502864122391,0.1464778333902359
1758447539645450800,10.02745068359375,-0.05704449489712715,0.0734240859746933,0.16674289107322693
1758447539655424000,10.037424072265624,-0.04110768064856529,0.0022384668700397015,0.16632536053657532
1758447539665395700,10.047395751953125,-0.02093583159148693,-0.0754012018442154,0.1576961874961853
1758447539675368700,10.05736865234375,-0.00038295984268188477,-0.14901669323444366,0.15025457739830017
1758447539685341000,10.0673408203125,0.015818646177649498,-0.213060662150383,0.13904400169849396
1758447539695313700,10.077313720703126,0.03533375635743141,-0.27521589398384094,0.12294942140579224
1758447539705286000,10.087285888671875,0.053708769381046295,-0.32601433992385864,0.10060763359069824
1758447539715259000,10.0972587890625,0.06666512042284012,-0.36004436016082764,0.06440432369709015
1758447539725230600,10.107230712890624,0.07108516991138458,-0.34761062264442444,0.014053002931177616
1758447539735202800,10.117202880859375,0.06278569996356964,-0.2829948663711548,-0.0366237536072731
1758447539745175800,10.12717578125,0.04405834898352623,-0.1820240616798401,-0.08268526196479797
1758447539755147800,10.137147705078124,0.021400170400738716,-0.06477305293083191,-0.10951795428991318
1758447539765120800,10.147120849609376,0.001977737993001938,0.040973082184791565,-0.11300695687532425
1758447539775092700,10.1570927734375,-0.016407430171966553,0.12463050335645676,-0.10431849211454391
1758447539785066000,10.16706591796875,-0.03812284395098686,0.17743033170700073,-0.08911930024623871
1758447539795037700,10.17703759765625,-0.053307656198740005,0.20532427728176117,-0.07137653231620789
1758447539805010700,10.1870107421875,-0.06006303057074547,0.20714455842971802,-0.050800684839487076
1758447539814982700,10.196982666015625,-0.05791325122117996,0.1736477017402649,-0.033577244728803635
1758447539824955600,10.20695556640625,-0.05134189873933792,0.10455357283353806,-0.017637424170970917
1758447539834927900,10.216927978515624,-0.04597574844956398,0.005187539383769035,-0.0050101373344659805
1758447539844900900,10.22690087890625,-0.037273868918418884,-0.09251824766397476,-0.0007386936340481043
1758447539854872600,10.23687255859375,-0.02847280539572239,-0.14917536079883575,-0.006585573311895132
1758447539864844800,10.2468447265625,-0.015934109687805176,-0.14723791182041168,-0.016261901706457138
1758447539874817800,10.25681787109375,-0.007781982421875,-0.09479214251041412,-0.021804694086313248
1758447539884789800,10.266789794921875,-0.004160615615546703,-0.022585853934288025,-0.01634920947253704
1758447539894762800,10.2767626953125,-0.007318822667002678,0.04402000084519386,-0.0025520725175738335
1758447539904735000,10.28673486328125,-0.009188627824187279,0.09255371242761612,0.01711803674697876
1758447539914707700,10.296707763671876,-0.004640442319214344,0.12441409379243851,0.029242198914289474
1758447539924679700,10.3066796875,0.003932805731892586,0.14994636178016663,0.029382813721895218
1758447539934653000,10.31665283203125,0.01593460515141487,0.17284128069877625,0.027335364371538162
1758447539944624600,10.326624755859376,0.03356686234474182,0.17506875097751617,0.02949412167072296
1758447539954597600,10.33659765625,0.04187348484992981,0.13778646290302277,0.03707733750343323
1758447539964569900,10.34656982421875,0.04981263726949692,0.06955386698246002,0.047540098428726196
1758447539974542300,10.356542236328124,0.04658401384949684,0.007981461472809315,0.038282740861177444
1758447539984514600,10.3665146484375,0.04351205751299858,-0.015075122006237507,0.02080361545085907
1758447539994487300,10.3764873046875,0.04009411484003067,0.00043227418791502714,-0.007007085718214512
1758447540004459300,10.386459228515625,0.03318854048848152,0.04752654582262039,-0.02418660558760166
1758447540014431500,10.396431396484376,0.018554624170064926,0.11799348145723343,-0.017887495458126068
1758447540024404200,10.406404296875,0.0015189165715128183,0.18155089020729065,0.006765386089682579
1758447540034376400,10.41637646484375,-0.01903189718723297,0.24360279738903046,0.028201447799801826
1758447540044349400,10.426349365234374,-0.03681755065917969,0.3065519630908966,0.0321999192237854
1758447540054321400,10.4363212890625,-0.04392610117793083,0.3412303924560547,0.016007229685783386
1758447540064294400,10.44629443359375,-0.04511493816971779,0.33884018659591675,-0.0046607633121311665
1758447540074266400,10.456266357421875,-0.04039733484387398,0.3047579526901245,-0.009673384949564934
1758447540084239400,10.4662392578125,-0.026070326566696167,0.2437657117843628,0.004422459751367569
1758447540094211300,10.47621142578125,-0.015861524268984795,0.16760121285915375,0.02305663749575615
1758447540104184300,10.486184326171875,-0.007643807679414749,0.10329386591911316,0.03725661337375641
1758447540114156500,10.496156494140624,-0.0042726993560791016,0.07167932391166687,0.04509427770972252
1758447540124129300,10.50612939453125,0.0016017016023397446,0.07062897831201553,0.052413973957300186
1758447540134101500,10.5161015625,0.0023518784437328577,0.0875699445605278,0.06436001509428024
1758447540144073500,10.526073486328125,0.00657165702432394,0.1073998436331749,0.07866279035806656
1758447540154046200,10.536046142578124,0.004472285509109497,0.12820953130722046,0.0856301411986351
1758447540164018400,10.546018310546875,0.004486666060984135,0.14884716272354126,0.07803400605916977
1758447540173991400,10.555991455078125,0.004166323691606522,0.1692623496055603,0.05732003599405289
1758447540183963400,10.56596337890625,0.01008200366050005,0.17959247529506683,0.040464889258146286
1758447540193936400,10.575936279296876,0.015492599457502365,0.17374394834041595,0.03034764528274536
1758447540203908400,10.585908447265625,0.01606517843902111,0.15297262370586395,0.02503543719649315
1758447540213881600,10.595881591796875,0.017382260411977768,0.12429088354110718,0.021699991077184677
1758447540223853300,10.605853271484374,0.02203480154275894,0.10636407136917114,0.011344554834067822
1758447540233826300,10.615826416015626,0.023451033979654312,0.1130172610282898,-0.0008863885886967182
1758447540243798500,10.625798583984375,0.022701088339090347,0.1287461519241333,-0.007911008782684803
1758447540253771300,10.635771240234375,0.019455157220363617,0.13727614283561707,-0.006217700429260731
1758447540263743500,10.645743408203124,0.014413258992135525,0.13607850670814514,0.008395597338676453
1758447540273715500,10.655715576171875,0.006993349641561508,0.11941127479076385,0.02391839772462845
1758447540283688200,10.665688232421875,0.0011549019254744053,0.09430858492851257,0.03203331679105759
1758447540293660400,10.675660400390624,-0.0034007031936198473,0.0842847153544426,0.028308870270848274
1758447540303633400,10.68563330078125,-0.009547279216349125,0.0917399674654007,0.01276266947388649
1758447540313605400,10.69560546875,-0.005643349140882492,0.0999334454536438,-0.011065153405070305
1758447540323578400,10.705578369140625,-0.0021761800162494183,0.10644940286874771,-0.02289864420890808
1758447540333550300,10.71555029296875,-0.0024618201423436403,0.10549282282590866,-0.011156396940350533
1758447540343523600,10.725523681640626,-0.005340165458619595,0.08507116883993149,0.008699865080416203
1758447540353495300,10.735495361328125,0.0004431474953889847,0.049559805542230606,0.024360520765185356
1758447540363468300,10.74546826171875,0.006451505236327648,0.012076875194907188,0.020990025252103806
1758447540373440500,10.7554404296875,0.012832287698984146,-0.012105920352041721,0.004228699486702681
1758447540383413200,10.765413330078125,0.014287970960140228,-0.02716929279267788,-0.010131597518920898
1758447540393385500,10.775385498046875,0.01577843353152275,-0.04053708165884018,-0.006344622001051903
1758447540403357400,10.785357421875,0.01716114580631256,-0.06043675169348717,0.005141325294971466
1758447540413330400,10.795330322265626,0.02114085853099823,-0.08439245074987411,0.01246705837547779
1758447540423302400,10.805302490234375,0.024410955607891083,-0.105434350669384,0.009942913427948952
1758447540433275400,10.815275390625,0.023462645709514618,-0.10702089220285416,-0.0029189290944486856
1758447540443247400,10.825247314453126,0.01967776194214821,-0.08982006460428238,-0.017437152564525604
1758447540453220400,10.835220458984375,0.013187596574425697,-0.06120351701974869,-0.027257971465587616
1758447540463192600,10.845192626953125,0.007290026172995567,-0.043320391327142715,-0.023692533373832703
1758447540473165600,10.85516552734375,-0.00037360074929893017,-0.04570075869560242,-0.017813147976994514
1758447540483137300,10.86513720703125,-0.0060392096638679504,-0.06071166694164276,-0.015612311661243439
1758447540493110500,10.875110595703125,-0.011898087337613106,-0.07413468509912491,-0.01703021116554737
1758447540503082500,10.88508251953125,-0.018287543207406998,-0.06944459676742554,-0.02161031775176525
1758447540513055200,10.89505517578125,-0.02188989147543907,-0.048097170889377594,-0.023154642432928085
1758447540523027500,10.90502734375,-0.02266114391386509,-0.020253026857972145,-0.017505547031760216
1758447540532999200,10.914999267578125,-0.022647861391305923,0.001119172782637179,-0.007440214045345783
1758447540542972400,10.924972412109375,-0.0220305398106575,0.010214134119451046,-0.00045128073543310165
1758447540552944400,10.9349443359375,-0.020255811512470245,0.005279035773128271,-0.0032273721881210804
1758447540562917400,10.94491748046875,-0.014577154070138931,-0.0013612902257591486,-0.010366242378950119
1758447540572889300,10.954889404296875,-0.006949019152671099,-0.012102974578738213,-0.01890552043914795
1758447540582862300,10.9648623046875,0.0026189193595200777,-0.02027488313615322,-0.023037414997816086
1758447540592834600,10.97483447265625,0.007746909745037556,-0.02869621105492115,-0.02319619618356228
1758447540602807300,10.984807373046875,0.013411985710263252,-0.03340201452374458,-0.017951101064682007
1758447540612779300,10.994779296875,0.012650016695261002,-0.02974941022694111,-0.014041968621313572
1758447540622752500,11.00475244140625,0.011447599157691002,-0.01845015026628971,-0.013655277900397778
1758447540632724200,11.01472412109375,0.011465290561318398,0.0004055997123941779,-0.012714039534330368
1758447540642697200,11.024697265625,0.011857573874294758,0.01563861407339573,-0.01542966440320015
1758447540652669400,11.03466943359375,0.008439943194389343,0.018185652792453766,-0.017025139182806015
1758447540662641400,11.044641357421876,0.007647652179002762,0.011001775041222572,-0.015034159645438194
1758447540672614400,11.054614501953125,0.005293682683259249,-0.0037886174395680428,-0.011133707128465176
1758447540682586400,11.06458642578125,0.00012928061187267303,-0.017200563102960587,-0.0014603070449084044
1758447540692559400,11.074559326171874,-0.000925752567127347,-0.01835845783352852,0.013632945716381073
1758447540702531300,11.08453125,-0.0032901072409003973,-0.009075477719306946,0.031194094568490982
1758447540712504300,11.09450439453125,-0.0030613394919782877,-0.0020109149627387524,0.04806789383292198
1758447540722476500,11.1044765625,-0.002974520670250058,-0.004240513779222965,0.053094346076250076
1758447540732449300,11.11444921875,-0.0007497158367186785,-0.016248440369963646,0.052430953830480576
1758447540742421500,11.12442138671875,0.0005219434387981892,-0.027795907109975815,0.04685908555984497
1758447540752394500,11.13439453125,0.002468450926244259,-0.03929517790675163,0.033168599009513855
1758447540762366200,11.1443662109375,0.004743056371808052,-0.03944031894207001,0.014802375808358192
1758447540772338400,11.15433837890625,0.006151486653834581,-0.02853604033589363,-0.007439636625349522
1758447540782311400,11.1643115234375,0.00841277651488781,-0.009263544343411922,-0.023814614862203598
1758447540792283400,11.174283447265625,0.006437433883547783,0.011521517299115658,-0.029508419334888458
1758447540802256400,11.18425634765625,0.006045949179679155,0.024732394143939018,-0.026721687987446785
1758447540812228400,11.194228271484375,0.0038409698754549026,0.028736477717757225,-0.02105889469385147
1758447540822201600,11.20420166015625,0.0026534665375947952,0.025974780321121216,-0.02164825238287449
1758447540832173300,11.21417333984375,0.0020470228046178818,0.028561333194375038,-0.026187492534518242
1758447540842146300,11.224146240234376,-0.0020979212131351233,0.02851472795009613,-0.028145447373390198
1758447540852118500,11.234118408203125,-0.00799701176583767,0.024365369230508804,-0.026242651045322418
1758447540862091300,11.24409130859375,-0.009667612612247467,0.007407423108816147,-0.016484297811985016
1758447540872063500,11.2540634765625,-0.010302172973752022,-0.020094379782676697,-0.0006199164781719446
1758447540882036500,11.264036376953126,-0.005937252193689346,-0.05320892482995987,0.013902567327022552
1758447540892008200,11.27400830078125,-0.006482169032096863,-0.08259391784667969,0.02107277698814869
1758447540901980400,11.28398046875,-0.007472597993910313,-0.10558365285396576,0.019784605130553246
1758447540911953400,11.293953369140626,-0.006149386055767536,-0.10856057703495026,0.010831791907548904
1758447540921925400,11.30392529296875,-0.0028539905324578285,-0.0956042930483818,0.0040812105871737
1758447540931898400,11.3138984375,-0.00044162594713270664,-0.07489170879125595,0.0013580708764493465
1758447540941870300,11.323870361328124,0.00593957444652915,-0.0535786934196949,0.0037903357297182083
1758447540951843600,11.333843505859376,0.014243653044104576,-0.03295213356614113,0.006410587579011917
1758447540961815300,11.343815185546875,0.029291845858097076,-0.0172559954226017,0.004219338297843933
1758447540971789000,11.3537890625,0.04511018469929695,-0.005624297074973583,-0.005240320228040218
1758447540981761300,11.36376123046875,0.06261647492647171,0.0021172454580664635,-0.013352042064070702
1758447540991734000,11.373734130859376,0.07888089865446091,0.0104234479367733,-0.017151938751339912
1758447541001706200,11.383706298828125,0.09250882267951965,0.009295333176851273,-0.01689281314611435
1758447541011678200,11.39367822265625,0.1014246717095375,0.0018795374780893326,-0.01919531635940075
1758447541021651000,11.40365087890625,0.11343233287334442,0.0037088626995682716,-0.023524019867181778
1758447541031623200,11.413623046875,0.11405147612094879,0.006736956536769867,-0.025148671120405197
1758447541041596200,11.42359619140625,0.10058892518281937,0.009449386037886143,-0.020729687064886093
1758447541051568000,11.433568115234374,0.05645022541284561,0.0033259899355471134,-0.007407248951494694
1758447541061541000,11.443541015625,-0.004066380672156811,-0.019868278875947,0.014904182404279709
1758447541071513000,11.45351318359375,-0.05379858985543251,-0.04763238877058029,0.04929923266172409
1758447541081486000,11.463486083984375,-0.09645310789346695,-0.07615750283002853,0.09001470357179642
1758447541091458000,11.4734580078125,-0.14825178682804108,-0.12466474622488022,0.10340745747089386
1758447541101431000,11.48343115234375,-0.1852651983499527,-0.17841799557209015,0.10143937170505524
1758447541111403000,11.493403076171875,-0.17456457018852234,-0.20086319744586945,0.08835485577583313
1758447541121375000,11.503375,-0.09837792813777924,-0.16773159801959991,0.07301132380962372
1758447541131348200,11.51334814453125,-0.004773180466145277,-0.07732225954532623,0.043819744139909744
1758447541141320000,11.52331982421875,0.059491559863090515,0.027928795665502548,0.001349516212940216
1758447541151293000,11.53329296875,0.08884115517139435,0.1064111739397049,-0.04244896396994591
1758447541161265200,11.54326513671875,0.10195375978946686,0.14254653453826904,-0.06650370359420776
1758447541171238100,11.553238037109375,0.10242430120706558,0.1398530751466751,-0.07602725178003311
1758447541181210000,11.563210205078125,0.09128696471452713,0.10562533885240555,-0.07535560429096222
1758447541191183000,11.57318310546875,0.06069835275411606,0.06428231298923492,-0.06458096206188202
1758447541201155000,11.583155029296876,0.022632190957665443,0.0352029949426651,-0.04804433509707451
1758447541211128000,11.593128173828125,-0.003719331929460168,0.03341829776763916,-0.027234626933932304
1758447541221100000,11.60310009765625,-0.028696587309241295,0.05609298497438431,-0.011591218411922455
1758447541231073000,11.613072998046874,-0.050519779324531555,0.09393660724163055,0.0015951497480273247
1758447541241045000,11.623044921875,-0.07656815648078918,0.1450871378183365,0.01651178114116192
1758447541251017200,11.633017333984375,-0.09395921230316162,0.1934119611978531,0.03740455210208893
1758447541260990200,11.642990234375,-0.09234640002250671,0.22415496408939362,0.060199081897735596
1758447541270962000,11.6529619140625,-0.0907863974571228,0.21607905626296997,0.0731426477432251
1758447541280935200,11.66293505859375,-0.08535727858543396,0.17618677020072937,0.06943818926811218
1758447541290907100,11.6729072265625,-0.06956735253334045,0.11160637438297272,0.054169077426195145
1758447541300880100,11.682880126953124,-0.04751265048980713,0.033416759222745895,0.03782153129577637
1758447541310852000,11.69285205078125,-0.029688378795981407,-0.04576648026704788,0.029995311051607132
1758447541320825000,11.7028251953125,-0.010237982496619225,-0.10412167012691498,0.03150958567857742
1758447541330797300,11.71279736328125,0.008218328468501568,-0.12721434235572815,0.03492741659283638
1758447541340770000,11.72277001953125,0.022356251254677773,-0.10639587789773941,0.03040723316371441
1758447541350742000,11.732741943359375,0.03090488351881504,-0.045911259949207306,0.01635657250881195
1758447541360714200,11.74271435546875,0.03722669184207916,0.04165826737880707,-0.010589824058115482
1758447541370687000,11.75268701171875,0.03701258450746536,0.11768936365842819,-0.03595265746116638
1758447541380659200,11.7626591796875,0.03288334980607033,0.16841885447502136,-0.05346453934907913
1758447541390632200,11.772632080078125,0.0262907724827528,0.18460725247859955,-0.05759911611676216
1758447541400604000,11.78260400390625,0.017879445105791092,0.17006798088550568,-0.054985757917165756
1758447541410577200,11.7925771484375,0.006008287891745567,0.1350599229335785,-0.04887336865067482
1758447541420549000,11.802549072265625,-0.0048691276460886,0.09672530740499496,-0.04266873747110367
1758447541430522000,11.812522216796875,-0.017907774075865746,0.06752177327871323,-0.032552968710660934
1758447541440494000,11.822494140625,-0.032598838210105896,0.058743998408317566,-0.016168933361768723
1758447541450466000,11.832466064453126,-0.04384974017739296,0.06634888052940369,0.004736815579235554
1758447541460439300,11.842439208984375,-0.05016302689909935,0.08932876586914062,0.030221134424209595
1758447541470411000,11.852410888671875,-0.056466806679964066,0.11426009982824326,0.053693737834692
1758447541480384000,11.862384033203124,-0.05782341957092285,0.1374857872724533,0.07278300821781158
1758447541490356200,11.872356201171876,-0.049612440168857574,0.15908336639404297,0.09113304316997528
1758447541500329000,11.882328857421875,-0.0385667122900486,0.17243432998657227,0.10677405446767807
1758447541510301200,11.89230126953125,-0.024951988831162453,0.17371004819869995,0.12050402164459229
1758447541520274200,11.902274169921874,-0.00971604511141777,0.15190647542476654,0.1246846541762352
1758447541530246100,11.91224609375,0.010657821781933308,0.11676415801048279,0.10849282890558243
1758447541540219100,11.92221923828125,0.03181024640798569,0.07459566742181778,0.0663328543305397
1758447541550191000,11.932191162109374,0.0483059398829937,0.04366130754351616,0.016764191910624504
1758447541560163000,11.9421630859375,0.058815572410821915,0.02043294906616211,-0.020105142146348953
1758447541570136000,11.952135986328125,0.06005961447954178,0.0008457677904516459,-0.043243762105703354
1758447541580108300,11.9621083984375,0.05405684933066368,-0.019770827144384384,-0.05075893551111221
1758447541590081300,11.972081298828124,0.03859978914260864,-0.039828021079301834,-0.055597297847270966
1758447541600053000,11.982052978515625,0.023564914241433144,-0.055231478065252304,-0.0617033913731575
1758447541610026200,11.992026123046875,0.0115037951618433,-0.06453829258680344,-0.06374292075634003
1758447541619998200,12.001998291015624,-0.0016460954211652279,-0.07042840123176575,-0.05515129864215851
1758447541629971000,12.011970947265626,-0.013682520017027855,-0.08590509742498398,-0.036864180117845535
1758447541639943200,12.021943115234375,-0.030182134360074997,-0.11775357276201248,-0.010748159140348434
1758447541649916200,12.031916259765625,-0.04047395661473274,-0.16145651042461395,0.014910498633980751
1758447541659888000,12.04188818359375,-0.03942627087235451,-0.20495471358299255,0.032510001212358475
1758447541669860000,12.051860107421875,-0.03427993878722191,-0.2384973168373108,0.03567902743816376
1758447541679833000,12.0618330078125,-0.03156218305230141,-0.25298863649368286,0.034704044461250305
